time,seconds_elapsed,z,y,x
1641191870122649300,0.0356494140625,-0.1656000018119812,-0.05939999967813492,0.02879999950528145
1641191870132652500,0.045652587890625,-0.5769000053405762,-0.07029999792575836,-0.00930000003427267
1641191870142649300,0.0556494140625,-0.8305000066757202,-0.07289999723434448,-0.08489999920129776
1641191870152649500,0.0656494140625,-0.9363999962806702,-0.11539999395608902,-0.10969999432563782
1641191870162649300,0.0756494140625,-1.0217000246047974,-0.11019999533891678,-0.17099998891353607
1641191870172649500,0.0856494140625,-0.9386000037193298,-0.08699999749660492,-0.2947999835014343
1641191870182658800,0.095658935546875,-0.7638999819755554,-0.027499999850988388,-0.42579999566078186
1641191870192649500,0.1056494140625,-0.5030999779701233,0.01730000041425228,-0.5250999927520752
1641191870202649300,0.1156494140625,-0.21570000052452087,0.009800000116229057,-0.4713999927043915
1641191870212649500,0.1256494140625,0.05139999836683273,-0.031199999153614044,-0.3540000021457672
1641191870222649300,0.1356494140625,0.2336999922990799,-0.10529999434947968,-0.20509999990463257
1641191870232654000,0.145654052734375,0.382999986410141,-0.14010000228881836,-0.12139999866485596
1641191870242649300,0.1556494140625,0.4327999949455261,-0.1356000006198883,-0.05460000038146973
1641191870252649500,0.1656494140625,0.3637999892234802,-0.10159999877214432,-0.00279999990016222
1641191870262649300,0.1756494140625,0.25380000472068787,-0.08399999886751175,0.01599999889731407
1641191870272649500,0.1856494140625,0.13419999182224274,-0.039799999445676804,0.02149999886751175
1641191870282660400,0.195660400390625,0.02159999869763851,-0.015699999406933784,0.030799999833106995
1641191870292648000,0.20564794921875,-0.016099998727440834,-0.015399999916553497,0.12280000001192093
1641191870302647800,0.215647705078125,-0.023499999195337296,0.033799998462200165,0.14999999105930328
1641191870312649500,0.2256494140625,-0.11879999935626984,0.17669999599456787,0.1914999932050705
1641191870322647800,0.235647705078125,-0.2815999984741211,0.3130999803543091,0.1096000000834465
1641191870332648000,0.24564794921875,-0.4421999752521515,0.3260999917984009,0.07800000160932541
1641191870342647800,0.255647705078125,-0.5115000009536743,0.36890000104904175,0.01599999889731407
1641191870352648000,0.26564794921875,-0.5557999610900879,0.41609999537467957,0.003399999812245369
1641191870362647800,0.275647705078125,-0.6119999885559082,0.4001999795436859,-0.050200000405311584
1641191870372648000,0.28564794921875,-0.712399959564209,0.5267999768257141,-0.3375000059604645
1641191870382647800,0.295647705078125,-0.9275999665260315,0.6679999828338623,-0.7975999712944031
1641191870392652500,0.305652587890625,-1.0634000301361084,0.4772000014781952,-0.5846999883651733
1641191870402647800,0.315647705078125,-1.132200002670288,0.23669999837875366,-0.2721000015735626
1641191870412648000,0.32564794921875,-1.1721999645233154,0.14829999208450317,0.0543999969959259
1641191870422647800,0.335647705078125,-1.0870000123977661,0.1225999966263771,0.34779998660087585
1641191870432648000,0.34564794921875,-0.9850999712944031,0.14169999957084656,0.5101999640464783
1641191870442652400,0.35565234375,-0.816100001335144,0.22100000083446503,0.4616999924182892
1641191870452649500,0.3656494140625,-0.6118999719619751,0.21469999849796295,0.3271999955177307
1641191870462649300,0.3756494140625,-0.42569997906684875,0.20069999992847443,0.18779999017715454
1641191870472649500,0.3856494140625,-0.34869998693466187,0.21040000021457672,0.11739999800920486
1641191870482649300,0.3956494140625,-0.2531999945640564,0.13459999859333038,0.125
1641191870492655600,0.405655517578125,-0.20589999854564667,0.04470000043511391,0.10019999742507935
1641191870502649300,0.4156494140625,-0.17839999496936798,0.08009999990463257,-0.016599999740719795
1641191870512649500,0.4256494140625,-0.17399999499320984,0.10249999910593033,-0.08879999816417694
1641191870522649300,0.4356494140625,-0.2886999845504761,0.18639999628067017,-0.42829999327659607
1641191870532649500,0.4456494140625,-0.2505999803543091,0.4341000020503998,-0.7252999544143677
1641191870542658800,0.455658935546875,-0.09039999544620514,0.5428000092506409,-0.6484000086784363
1641191870552649500,0.4656494140625,-0.12269999831914902,0.5482000112533569,-0.41429999470710754
1641191870562649300,0.4756494140625,-0.29510000348091125,0.6366999745368958,-0.006099999882280827
1641191870572649500,0.4856494140625,-0.538599967956543,0.8696999549865723,0.33869999647140503
1641191870582649300,0.4956494140625,-0.7973999977111816,1.105799913406372,0.44579997658729553
1641191870592658700,0.50565869140625,-0.8933999538421631,1.157599925994873,0.28369998931884766
1641191870602649300,0.5156494140625,-0.7805999517440796,1.051200032234192,0.013799999840557575
1641191870612649500,0.5256494140625,-0.5843999981880188,0.9314000010490417,-0.1809999942779541
1641191870622649300,0.5356494140625,-0.2784999907016754,1.063599944114685,-0.04470000043511391
1641191870632649500,0.5456494140625,0.020399998873472214,1.4376999139785767,0.5399999618530273
1641191870642660400,0.555660400390625,-0.047199998050928116,1.552799940109253,1.0049999952316284
1641191870652649500,0.5656494140625,-0.26989999413490295,1.430799961090088,1.1708999872207642
1641191870662649300,0.5756494140625,-0.6080999970436096,1.3177999258041382,1.059399962425232
1641191870672649500,0.5856494140625,-0.8697999715805054,1.2325999736785889,0.9315999746322632
1641191870682649300,0.5956494140625,-1.006500005722046,1.0591999292373657,0.8443999886512756
1641191870692658700,0.60565869140625,-0.9424999952316284,0.8526999950408936,0.9436999559402466
1641191870702655700,0.61565576171875,-0.7734000086784363,0.21619999408721924,1.2128000259399414
1641191870712649500,0.6256494140625,-0.3190999925136566,-0.22739998996257782,1.2997000217437744
1641191870722649300,0.6356494140625,-0.4651999771595001,-1.9035999774932861,0.32899999618530273
1641191870732649500,0.6456494140625,0.7156999707221985,-1.4426000118255615,0.5252000093460083
1641191870742652400,0.65565234375,2.2135000228881836,0.7257999777793884,1.299899935722351
1641191870752651000,0.665651123046875,2.474599838256836,1.1114000082015991,1.3731999397277832
1641191870762647800,0.675647705078125,1.5180999040603638,-0.013199999928474426,0.9299999475479126
1641191870772648000,0.68564794921875,0.3130999803543091,-0.9840999841690063,0.4717999994754791
1641191870782647800,0.695647705078125,-0.517300009727478,-1.1553000211715698,0.06539999693632126
1641191870792654000,0.705654052734375,-0.7506999969482422,-1.111799955368042,-0.155799999833107
1641191870802647800,0.715647705078125,-0.5277000069618225,-1.400499939918518,-0.2538999915122986
1641191870812648000,0.72564794921875,0.22129999101161957,-1.9363999366760254,-0.2094999998807907
1641191870822647800,0.735647705078125,1.3316999673843384,-2.1015000343322754,-0.1648000031709671
1641191870832648000,0.74564794921875,2.498800039291382,-2.1492998600006104,-0.1451999992132187
1641191870842655700,0.75565576171875,4.014499664306641,-2.443699836730957,0.43879997730255127
1641191870852648000,0.76564794921875,3.3178999423980713,-2.8504998683929443,0.5809000134468079
1641191870862649300,0.7756494140625,1.8547999858856201,-3.125200033187866,0.08630000054836273
1641191870872649500,0.7856494140625,0.6291999816894531,-3.1324000358581543,0.7962999939918518
1641191870882649300,0.7956494140625,-0.5490999817848206,-3.249799966812134,1.3876999616622925
1641191870892660200,0.80566015625,-1.1930999755859375,-3.310499906539917,2.007200002670288
1641191870902649300,0.8156494140625,-1.5302999019622803,-3.452699899673462,2.4296998977661133
1641191870912649500,0.8256494140625,-1.4763000011444092,-3.811800003051758,2.954900026321411
1641191870922649300,0.8356494140625,-1.2132999897003174,-4.022299766540527,3.296799898147583
1641191870932649500,0.8456494140625,-1.1632999181747437,-4.017099857330322,3.051800012588501
1641191870942655700,0.85565576171875,-1.5228999853134155,-3.914799928665161,2.081199884414673
1641191870952649500,0.8656494140625,-1.733199954032898,-3.7530999183654785,1.1557999849319458
1641191870962649300,0.8756494140625,-1.687399983406067,-3.5885000228881836,0.7333999872207642
1641191870972649500,0.8856494140625,-1.282599925994873,-3.498199939727783,1.000100016593933
1641191870982649300,0.8956494140625,-0.9159999489784241,-3.636399984359741,1.4589999914169312
1641191870992651000,0.905651123046875,-0.8629999756813049,-3.7856998443603516,1.9341999292373657
1641191871002649300,0.9156494140625,-1.7621999979019165,-3.7109999656677246,1.3565999269485474
1641191871012649500,0.9256494140625,-1.4579999446868896,-3.2904999256134033,2.340100049972534
1641191871022649300,0.9356494140625,-1.0707999467849731,-3.706899881362915,3.1457998752593994
1641191871032649500,0.9456494140625,-1.3531999588012695,-4.201299667358398,3.1161999702453613
1641191871042652400,0.95565234375,-2.1450998783111572,-3.8397998809814453,3.006899833679199
1641191871052649500,0.9656494140625,-2.134000062942505,-3.097599983215332,2.77239990234375
1641191871062649300,0.9756494140625,-1.4464999437332153,-2.7967000007629395,2.426300048828125
1641191871072649500,0.9856494140625,-0.8290999531745911,-2.8150999546051025,2.096299886703491
1641191871082649300,0.9956494140625,-0.30879998207092285,-2.8773000240325928,1.7453999519348145
1641191871092661800,1.005661865234375,0.12489999830722809,-2.6255998611450195,1.3640999794006348
1641191871102649300,1.0156494140625,0.07449999451637268,-2.158599853515625,0.8852999806404114
1641191871112649500,1.0256494140625,-0.24129998683929443,-1.5259000062942505,0.29829999804496765
1641191871122649300,1.0356494140625,-0.5342000126838684,-1.0185999870300293,-0.16259999573230743
1641191871132654000,1.045654052734375,-0.8543999791145325,-0.7821999788284302,-0.43359997868537903
1641191871142655700,1.05565576171875,-1.2305999994277954,-0.7559999823570251,-0.600600004196167
1641191871152648000,1.06564794921875,-1.4780999422073364,-0.6491000056266785,-0.7429999709129333
1641191871162649300,1.0756494140625,-1.5657999515533447,-0.4814999997615814,-0.7191999554634094
1641191871172649500,1.0856494140625,-1.580299973487854,-0.49559998512268066,-0.7281000018119812
1641191871182649300,1.0956494140625,-1.4921000003814697,-0.6728999614715576,-0.6383999586105347
1641191871192654000,1.105654052734375,-1.4221999645233154,-0.6548999547958374,-0.4658999741077423
1641191871202649300,1.1156494140625,-1.3580999374389648,-0.6933000087738037,-0.33409997820854187
1641191871212648000,1.12564794921875,-0.9310999512672424,-0.7835999727249146,-0.3301999866962433
1641191871222647800,1.135647705078125,-0.0916999951004982,-0.7480999827384949,-0.4813999831676483
1641191871232648000,1.14564794921875,0.8131999969482422,-0.6829000115394592,-0.7723000049591064
1641191871242655700,1.15565576171875,1.2767999172210693,-0.748199999332428,-1.2728999853134155
1641191871252648000,1.16564794921875,1.5082999467849731,-0.64410001039505,-2.1024999618530273
1641191871262647800,1.175647705078125,1.437600016593933,-0.539900004863739,-2.7202999591827393
1641191871272648000,1.18564794921875,1.414099931716919,-0.17080000042915344,-3.012199878692627
1641191871282649300,1.1956494140625,1.301800012588501,0.01850000023841858,-3.568499803543091
1641191871292652500,1.205652587890625,1.1704999208450317,-0.12960000336170197,-4.38129997253418
1641191871302649300,1.2156494140625,1.1022000312805176,-0.3571999967098236,-4.989500045776367
1641191871312649500,1.2256494140625,1.0723999738693237,-0.29829999804496765,-5.246200084686279
1641191871322649300,1.2356494140625,1.0614999532699585,-0.3671000003814697,-5.037099838256836
1641191871332649500,1.2456494140625,1.5549999475479126,-0.5999000072479248,-4.726200103759766
1641191871342657300,1.2556572265625,2.7460999488830566,-0.7425000071525574,-4.637599945068359
1641191871352649500,1.2656494140625,4.359899997711182,-0.8422999978065491,-4.842599868774414
1641191871362649300,1.2756494140625,6.003299713134766,-1.0184999704360962,-5.0243000984191895
1641191871372649500,1.2856494140625,7.236499786376953,-1.01829993724823,-4.943999767303467
1641191871382649300,1.2956494140625,7.730099678039551,-1.1424999237060547,-4.5015997886657715
1641191871392658700,1.30565869140625,7.625,-1.2257000207901,-3.541599988937378
1641191871402651000,1.31565087890625,6.666499614715576,-1.293299913406372,-2.083199977874756
1641191871412649500,1.3256494140625,5.2540998458862305,-1.2893999814987183,-1.1277999877929688
1641191871422649300,1.3356494140625,3.7421000003814697,-1.037500023841858,-0.7117999792098999
1641191871432649500,1.3456494140625,2.618499994277954,-0.4851999878883362,-0.734499990940094
1641191871442654000,1.355654052734375,1.4350999593734741,0.18619999289512634,-1.1984000205993652
1641191871452649500,1.3656494140625,-0.025599999353289604,0.7268999814987183,-1.1538000106811523
1641191871462649300,1.3756494140625,-0.3179999887943268,1.3291999101638794,-0.4008999764919281
1641191871472649500,1.3856494140625,-0.7441999912261963,1.2620999813079834,-0.054499998688697815
1641191871482649300,1.3956494140625,-0.30629998445510864,1.0985000133514404,0.46320000290870667
1641191871492649500,1.4056494140625,-0.9307000041007996,1.1568999290466309,0.3797000050544739
1641191871502649300,1.4156494140625,-0.6984999775886536,1.7603999376296997,0.04749999940395355
1641191871512649500,1.4256494140625,0.9927999973297119,2.1148998737335205,0.2979999780654907
1641191871522649300,1.4356494140625,1.194700002670288,2.49399995803833,-1.1347999572753906
1641191871532649500,1.4456494140625,0.29269999265670776,3.246500015258789,-2.0550999641418457
1641191871542651000,1.45565087890625,-1.0224000215530396,3.852599859237671,-1.7691999673843384
1641191871552649500,1.4656494140625,-2.2923998832702637,4.082499980926514,-0.8920999765396118
1641191871562649300,1.4756494140625,-2.197000026702881,3.799499988555908,-0.10509999841451645
1641191871572649500,1.4856494140625,-2.346099853515625,3.545099973678589,0.2655999958515167
1641191871582649300,1.4956494140625,-2.9361000061035156,3.6745998859405518,0.25759997963905334
1641191871592658700,1.50565869140625,-3.6111998558044434,3.781599998474121,0.7590999603271484
1641191871602649300,1.5156494140625,-4.0304999351501465,3.198499917984009,0.861299991607666
1641191871612648000,1.52564794921875,-3.463599920272827,2.7189998626708984,0.8348999619483948
1641191871622649300,1.5356494140625,-2.4467999935150146,2.2792999744415283,0.6937999725341797
1641191871632648000,1.54564794921875,-1.2624999284744263,2.248699903488159,-0.045899998396635056
1641191871642654000,1.555654052734375,-0.39629998803138733,2.666100025177002,-1.0729999542236328
1641191871652648000,1.56564794921875,-0.14579999446868896,3.151700019836426,-2.1333999633789062
1641191871662647800,1.575647705078125,-0.691100001335144,3.389699935913086,-3.231099843978882
1641191871672648000,1.58564794921875,-1.757200002670288,3.339900016784668,-3.6641998291015625
1641191871682647800,1.595647705078125,-2.870499849319458,2.870800018310547,-2.8783998489379883
1641191871692651000,1.605651123046875,-3.5151000022888184,1.9433999061584473,-1.2943999767303467
1641191871702649300,1.6156494140625,-4.054999828338623,0.7400999665260315,0.9668999910354614
1641191871712649500,1.6256494140625,-4.0970001220703125,-0.777999997138977,3.564499855041504
1641191871722649300,1.6356494140625,-3.653599977493286,-1.8733999729156494,4.965199947357178
1641191871732649500,1.6456494140625,-1.4609999656677246,-2.460099935531616,4.249899864196777
1641191871742652400,1.65565234375,0.8115999698638916,-2.487799882888794,1.0447999238967896
1641191871752649500,1.6656494140625,0.621999979019165,-2.1222000122070312,-2.1389999389648438
1641191871762649300,1.6756494140625,-1.2888000011444092,-2.01639986038208,-3.349900007247925
1641191871772649500,1.6856494140625,-3.8725998401641846,-2.331699848175049,-2.9791998863220215
1641191871782649300,1.6956494140625,-4.357699871063232,-2.7530999183654785,-2.939499855041504
1641191871792661800,1.705661865234375,-3.0125999450683594,-2.561199903488159,-2.6947999000549316
1641191871802649300,1.7156494140625,-2.3617000579833984,-2.385999917984009,-3.2507998943328857
1641191871812649500,1.7256494140625,-1.8918999433517456,-2.344099998474121,-3.0598998069763184
1641191871822649300,1.7356494140625,-1.013700008392334,-2.740999937057495,-2.075899839401245
1641191871832649500,1.7456494140625,0.031099999323487282,-3.0800998210906982,-1.8959999084472656
1641191871842657300,1.7556572265625,0.9879999756813049,-2.933199882507324,-1.5943999290466309
1641191871852649500,1.7656494140625,2.9953999519348145,-2.8027000427246094,-0.8622999787330627
1641191871862649300,1.7756494140625,4.318699836730957,-2.4210000038146973,-0.7418000102043152
1641191871872649500,1.7856494140625,4.805200099945068,-1.5094000101089478,-0.7134000062942505
1641191871882649300,1.7956494140625,4.479599952697754,-0.10669999569654465,-1.7084999084472656
1641191871892661800,1.805661865234375,4.309000015258789,0.920799970626831,-3.1689999103546143
1641191871902649300,1.8156494140625,2.8775999546051025,1.9175999164581299,-4.160099983215332
1641191871912649500,1.8256494140625,1.2573999166488647,2.796799898147583,-4.653299808502197
1641191871922649300,1.8356494140625,0.289000004529953,2.7644999027252197,-5.250400066375732
1641191871932649500,1.8456494140625,-0.5480999946594238,1.765899896621704,-4.529999732971191
1641191871942654000,1.855654052734375,-1.6277999877929688,0.5723999738693237,-1.6303999423980713
1641191871952649500,1.8656494140625,-0.9096999764442444,-0.5590000152587891,1.9656999111175537
1641191871962649300,1.8756494140625,-0.5450999736785889,-1.187399983406067,3.866299867630005
1641191871972649500,1.8856494140625,0.555400013923645,-1.6387999057769775,5.260499954223633
1641191871982647800,1.895647705078125,2.9189999103546143,-1.8772999048233032,5.044899940490723
1641191871992652500,1.905652587890625,4.78410005569458,-1.2207000255584717,3.8437998294830322
1641191872002647800,1.915647705078125,6.032299995422363,-0.41029998660087585,2.3904998302459717
1641191872012648000,1.92564794921875,6.563600063323975,0.21729999780654907,1.2293000221252441
1641191872022649300,1.9356494140625,6.1468000411987305,0.8398999571800232,0.49629998207092285
1641191872032648000,1.94564794921875,5.332799911499023,1.6782000064849854,0.2969000041484833
1641191872042654000,1.955654052734375,4.338599681854248,2.335599899291992,0.967799961566925
1641191872052648000,1.96564794921875,3.2177000045776367,2.588099956512451,1.9885998964309692
1641191872062647800,1.975647705078125,2.0460000038146973,2.7142999172210693,2.862299919128418
1641191872072648000,1.98564794921875,0.9629999995231628,2.757699966430664,3.3213000297546387
1641191872082647800,1.995647705078125,0.5564000010490417,2.6568000316619873,3.5434999465942383
1641191872092652500,2.005652587890625,0.5414999723434448,1.9303998947143555,3.700699806213379
1641191872102647800,2.015647705078125,0.5320999622344971,0.8014999628067017,4.377999782562256
1641191872112649500,2.0256494140625,0.4165000021457672,-0.09449999779462814,4.767399787902832
1641191872122649300,2.0356494140625,0.04209999740123749,-0.9853999614715576,4.692599773406982
1641191872132649500,2.0456494140625,-0.6049999594688416,-1.824299931526184,4.642299652099609
1641191872142649300,2.0556494140625,-1.5331999063491821,-2.023699998855591,4.49869966506958
1641191872152649500,2.0656494140625,-2.3285000324249268,-1.6895999908447266,3.958699941635132
1641191872162649300,2.0756494140625,-2.932799816131592,-0.884399950504303,3.1651999950408936
1641191872172649500,2.0856494140625,-3.322199821472168,0.02539999969303608,2.1412999629974365
1641191872182649300,2.0956494140625,-2.9988999366760254,0.5582999587059021,1.2312999963760376
1641191872192649500,2.1056494140625,-2.066999912261963,0.7493000030517578,0.8449999690055847
1641191872202649300,2.1156494140625,-0.8378999829292297,0.7534999847412109,0.555400013923645
1641191872212649500,2.1256494140625,0.148499995470047,0.45809999108314514,0.13519999384880066
1641191872222649300,2.1356494140625,0.8363999724388123,-0.3634999990463257,-0.32349997758865356
1641191872232649500,2.1456494140625,1.23989999294281,-1.0888999700546265,-0.483599990606308
1641191872242649300,2.1556494140625,1.4347999095916748,-1.3938000202178955,-0.991599977016449
1641191872252649500,2.1656494140625,1.070599913597107,-1.4332000017166138,-1.8194999694824219
1641191872262649300,2.1756494140625,0.21069999039173126,-1.277400016784668,-2.796299934387207
1641191872272649500,2.1856494140625,-1.0548999309539795,-1.3253999948501587,-3.9182000160217285
1641191872282654000,2.195654052734375,-1.7531999349594116,-1.680799961090088,-4.53849983215332
1641191872292649500,2.2056494140625,-2.1375999450683594,-2.0927999019622803,-4.996999740600586
1641191872302649300,2.2156494140625,-2.3889999389648438,-2.599599838256836,-5.830199718475342
1641191872312649500,2.2256494140625,-2.4423999786376953,-3.3385000228881836,-6.315399646759033
1641191872322649300,2.2356494140625,-2.4654998779296875,-3.631899833679199,-6.1419997215271
1641191872332652500,2.245652587890625,-2.535599946975708,-3.7749998569488525,-6.051699638366699
1641191872342649300,2.2556494140625,-2.204400062561035,-3.8140997886657715,-5.826699733734131
1641191872352649500,2.2656494140625,-1.1790000200271606,-3.618499994277954,-5.0879998207092285
1641191872362649300,2.2756494140625,0.04829999804496765,-3.2635998725891113,-4.08489990234375
1641191872372649500,2.2856494140625,1.1829999685287476,-3.038100004196167,-2.950500011444092
1641191872382654000,2.295654052734375,2.051100015640259,-2.9099998474121094,-1.8530999422073364
1641191872392648000,2.30564794921875,2.2356998920440674,-3.027599811553955,-1.1500999927520752
1641191872402649300,2.3156494140625,1.7371999025344849,-3.2181999683380127,-0.780299961566925
1641191872412648000,2.32564794921875,0.8215999603271484,-3.1277999877929688,-0.43289998173713684
1641191872422647800,2.335647705078125,-0.1898999959230423,-2.402400016784668,-0.21159999072551727
1641191872432658700,2.34565869140625,-1.2906999588012695,-1.3948999643325806,-0.13329999148845673
1641191872442647800,2.355647705078125,-2.0836000442504883,-0.35409998893737793,-0.19609999656677246
1641191872452648000,2.36564794921875,-2.214599847793579,0.598800003528595,0.027300000190734863
1641191872462647800,2.375647705078125,-1.7462999820709229,1.1692999601364136,0.33329999446868896
1641191872472648000,2.38564794921875,-0.7841999530792236,1.322700023651123,1.1306999921798706
1641191872482660400,2.395660400390625,-0.13249999284744263,1.2735999822616577,1.9972999095916748
1641191872492648000,2.40564794921875,0.13279999792575836,1.031499981880188,2.677799940109253
1641191872502647800,2.415647705078125,0.4154999852180481,0.8649999499320984,2.8492000102996826
1641191872512648000,2.42564794921875,0.9162999987602234,0.6951999664306641,3.180799961090088
1641191872522647800,2.435647705078125,1.7441999912261963,0.3463999927043915,3.9542999267578125
1641191872532661800,2.445661865234375,2.4916000366210938,-0.00039999998989515007,4.543099880218506
1641191872542649300,2.4556494140625,2.871500015258789,-0.24939998984336853,4.58519983291626
1641191872552649500,2.4656494140625,2.7649998664855957,-0.22769999504089355,4.385900020599365
1641191872562649300,2.4756494140625,2.2674999237060547,-0.009800000116229057,4.176300048828125
1641191872572649500,2.4856494140625,2.0102999210357666,0.39499998092651367,3.5421998500823975
1641191872582652400,2.49565234375,1.3040999174118042,0.8203999996185303,3.1596999168395996
1641191872592649500,2.5056494140625,-0.14819999039173126,0.8868999481201172,2.9382998943328857
1641191872602649300,2.5156494140625,-1.6582999229431152,0.8477999567985535,3.0625
1641191872612649500,2.5256494140625,-2.862299919128418,0.7321000099182129,3.4019999504089355
1641191872622649300,2.5356494140625,-3.4671998023986816,0.5931000113487244,3.849299907684326
1641191872632651000,2.545651123046875,-3.6064999103546143,0.42159998416900635,4.140999794006348
1641191872642649300,2.5556494140625,-2.856299877166748,0.33249998092651367,4.014499664306641
1641191872652649500,2.5656494140625,-1.6425999402999878,0.09669999778270721,3.575399875640869
1641191872662649300,2.5756494140625,-0.5758999586105347,-0.06279999762773514,3.1072998046875
1641191872672649500,2.5856494140625,0.2904999852180481,-0.057099997997283936,2.596099853515625
1641191872682649300,2.5956494140625,0.8260999917984009,-0.10769999772310257,2.0969998836517334
1641191872692651000,2.605651123046875,0.9954999685287476,-0.0575999990105629,1.671299934387207
1641191872702649300,2.6156494140625,0.6417999863624573,-0.13840000331401825,1.3013999462127686
1641191872712649500,2.6256494140625,-0.14090000092983246,-0.18029999732971191,0.8513999581336975
1641191872722649300,2.6356494140625,-0.9355999827384949,0.022199999541044235,0.28859999775886536
1641191872732649500,2.6456494140625,-1.6491999626159668,0.3418999910354614,-0.20829999446868896
1641191872742652400,2.65565234375,-2.0256998538970947,0.6814999580383301,-0.6078000068664551
1641191872752649500,2.6656494140625,-1.7757999897003174,0.5408999919891357,-0.98089998960495
1641191872762649300,2.6756494140625,-0.9001999497413635,0.1768999993801117,-0.9926999807357788
1641191872772649500,2.6856494140625,0.4056999981403351,-0.48249998688697815,-0.9121999740600586
1641191872782649300,2.6956494140625,1.7137999534606934,-1.261099934577942,-0.7105000019073486
1641191872792660200,2.70566015625,2.6998000144958496,-1.8651999235153198,-0.398499995470047
1641191872802649300,2.7156494140625,3.2667999267578125,-2.2829999923706055,-0.2053999900817871
1641191872812648000,2.72564794921875,3.2532999515533447,-2.4976999759674072,-0.20759999752044678
1641191872822647800,2.735647705078125,2.8664000034332275,-2.5085999965667725,-0.26969999074935913
1641191872832648000,2.74564794921875,2.276399850845337,-2.3962998390197754,-0.4470999836921692
1641191872842662000,2.755661865234375,1.5956999063491821,-1.9839999675750732,-0.6717999577522278
1641191872852648000,2.76564794921875,1.3341000080108643,-1.6687999963760376,-0.7339999675750732
1641191872862647800,2.775647705078125,1.3739999532699585,-1.7080999612808228,-0.6864999532699585
1641191872872648000,2.78564794921875,1.5792999267578125,-1.722000002861023,-0.4875999987125397
1641191872882647800,2.795647705078125,1.9383999109268188,-1.677799940109253,-0.09109999984502792
1641191872892655600,2.805655517578125,2.295300006866455,-1.6477999687194824,0.42549997568130493
1641191872902647800,2.815647705078125,2.5172998905181885,-1.7024999856948853,0.8379999995231628
1641191872912648000,2.82564794921875,2.2697999477386475,-1.6519999504089355,0.925599992275238
1641191872922647800,2.835647705078125,1.5841000080108643,-1.4289000034332275,0.8252999782562256
1641191872932648000,2.84564794921875,0.6250999569892883,-1.0081000328063965,0.5602999925613403
1641191872942658800,2.855658935546875,-0.49709999561309814,-0.6776999831199646,0.3240000009536743
1641191872952649500,2.8656494140625,-1.319000005722046,-0.4301999807357788,0.09119999408721924
1641191872962649300,2.8756494140625,-1.6624000072479248,-0.2565000057220459,-0.08619999885559082
1641191872972649500,2.8856494140625,-1.4847999811172485,-0.44689998030662537,-0.06639999896287918
1641191872982649300,2.8956494140625,-0.8037999868392944,-0.9497999548912048,0.3109999895095825
1641191872992661800,2.905661865234375,-0.017099998891353607,-1.5687999725341797,0.7865999937057495
1641191873002652400,2.91565234375,0.528499960899353,-2.0058999061584473,1.459999918937683
1641191873012649500,2.9256494140625,0.7680999636650085,-2.2826998233795166,1.9027999639511108
1641191873022649300,2.9356494140625,0.7763999700546265,-2.4744999408721924,2.5130999088287354
1641191873032649500,2.9456494140625,0.5521999597549438,-2.499300003051758,3.0809998512268066
1641191873042655700,2.95565576171875,-0.08089999854564667,-2.4876999855041504,3.4111998081207275
1641191873052649500,2.9656494140625,-0.8765999674797058,-2.440000057220459,3.584699869155884
1641191873062649300,2.9756494140625,-1.8453999757766724,-2.52020001411438,3.8523998260498047
1641191873072649500,2.9856494140625,-2.542799949645996,-2.7151999473571777,4.023099899291992
1641191873082649300,2.9956494140625,-2.8757998943328857,-2.7692999839782715,4.174200057983398
1641191873092660200,3.00566015625,-3.1534998416900635,-2.6429998874664307,4.287399768829346
1641191873102649300,3.0156494140625,-3.5092999935150146,-2.635999917984009,4.473799705505371
1641191873112649500,3.0256494140625,-3.9159998893737793,-2.768699884414673,4.823999881744385
1641191873122649300,3.0356494140625,-4.396699905395508,-3.213899850845337,5.105999946594238
1641191873132649500,3.0456494140625,-4.782199859619141,-3.871299982070923,5.614500045776367
1641191873142654000,3.055654052734375,-5.163399696350098,-4.778899669647217,6.432799816131592
1641191873152649500,3.0656494140625,-5.377999782562256,-5.395099639892578,7.3065996170043945
1641191873162649300,3.0756494140625,-5.566999912261963,-5.869999885559082,7.580599784851074
1641191873172649500,3.0856494140625,-5.19819974899292,-6.289700031280518,7.879299640655518
1641191873182649300,3.0956494140625,-4.600100040435791,-6.401399612426758,7.979300022125244
1641191873192654000,3.105654052734375,-4.12969970703125,-6.5269999504089355,7.605199813842773
1641191873202649300,3.1156494140625,-4.169300079345703,-6.391200065612793,6.474299907684326
1641191873212649500,3.1256494140625,-4.202499866485596,-5.77810001373291,5.391599655151367
1641191873222649300,3.1356494140625,-4.151099681854248,-5.490099906921387,4.416899681091309
1641191873232648000,3.14564794921875,-4.191199779510498,-5.599699974060059,3.5083999633789062
1641191873242657300,3.1556572265625,-3.8573999404907227,-5.817999839782715,2.81499981880188
1641191873252648000,3.16564794921875,-2.819000005722046,-6.0269999504089355,1.7727999687194824
1641191873262647800,3.175647705078125,-1.388700008392334,-6.277299880981445,-0.06939999759197235
1641191873272648000,3.18564794921875,0.2821999788284302,-6.39139986038208,-2.788800001144409
1641191873282647800,3.195647705078125,1.9484999179840088,-6.049900054931641,-6.062099933624268
1641191873292651000,3.205651123046875,3.5879998207092285,-5.048599720001221,-9.292200088500977
1641191873302647800,3.215647705078125,4.5794997215271,-4.116099834442139,-12.190099716186523
1641191873312648000,3.22564794921875,4.280600070953369,-3.53659987449646,-14.027299880981445
1641191873322647800,3.235647705078125,3.0307998657226562,-2.927799940109253,-13.882399559020996
1641191873332648000,3.24564794921875,1.4121999740600586,-2.0541000366210938,-11.803500175476074
1641191873342652400,3.25565234375,0.6327999830245972,-1.5148999691009521,-10.666099548339844
1641191873352648000,3.26564794921875,0.34579998254776,-0.8841999769210815,-10.936299324035645
1641191873362647800,3.275647705078125,0.6584999561309814,-0.2502000033855438,-11.164499282836914
1641191873372649500,3.2856494140625,1.1984999179840088,0.3351999819278717,-10.640399932861328
1641191873382649300,3.2956494140625,1.4601999521255493,0.6858999729156494,-9.397699356079102
1641191873392649500,3.3056494140625,1.9466999769210815,0.6718999743461609,-7.832399845123291
1641191873402651000,3.31565087890625,2.6847000122070312,0.3919999897480011,-6.342700004577637
1641191873412649500,3.3256494140625,3.1308999061584473,0.299699991941452,-5.460799694061279
1641191873422649300,3.3356494140625,3.041100025177002,0.5543000102043152,-5.668699741363525
1641191873432649500,3.3456494140625,2.561699867248535,1.3615999221801758,-6.1977996826171875
1641191873442649300,3.3556494140625,-0.08919999748468399,1.8423999547958374,-6.351500034332275
1641191873452661800,3.365661865234375,-2.2734999656677246,1.9041999578475952,-5.74370002746582
1641191873462649300,3.3756494140625,-4.022200107574463,1.5156999826431274,-4.62339973449707
1641191873472649500,3.3856494140625,-4.318699836730957,1.0033999681472778,-4.01639986038208
1641191873482649300,3.3956494140625,-3.6669998168945312,0.8109999895095825,-3.5114998817443848
1641191873492649500,3.4056494140625,-3.09689998626709,1.0748000144958496,-2.3690998554229736
1641191873502652400,3.41565234375,-3.489300012588501,1.3906999826431274,-1.1198999881744385
1641191873512649500,3.4256494140625,-4.642999649047852,1.396399974822998,-0.5385000109672546
1641191873522649300,3.4356494140625,-5.588699817657471,1.2360999584197998,-0.4405999779701233
1641191873532649500,3.4456494140625,-5.9475998878479,1.138100028038025,-0.37459999322891235
1641191873542649300,3.4556494140625,-6.14769983291626,1.305299997329712,0.32569998502731323
1641191873552660200,3.46566015625,-6.045599937438965,1.3845999240875244,2.586699962615967
1641191873562649300,3.4756494140625,-4.301599979400635,0.6304999589920044,5.474699974060059
1641191873572649500,3.4856494140625,-2.1679999828338623,-0.3959999978542328,8.719499588012695
1641191873582649300,3.4956494140625,-0.9065999984741211,-0.4733999967575073,9.666799545288086
1641191873592649500,3.5056494140625,-0.5482999682426453,-0.188400000333786,8.875800132751465
1641191873602657300,3.5156572265625,-1.9296998977661133,0.4551999866962433,6.178899765014648
1641191873612649500,3.5256494140625,-3.833400011062622,1.0734999179840088,4.449100017547607
1641191873622649300,3.5356494140625,-5.474499702453613,1.444599986076355,2.350600004196167
1641191873632649500,3.5456494140625,-5.953999996185303,1.6581999063491821,1.0113999843597412
1641191873642649300,3.5556494140625,-5.3364996910095215,1.6615999937057495,1.9545999765396118
1641191873652661800,3.565661865234375,-2.5009000301361084,0.7094999551773071,3.715399980545044
1641191873662649300,3.5756494140625,0.30820000171661377,-0.7351999878883362,5.1656999588012695
1641191873672648000,3.58564794921875,2.2884998321533203,-1.299799919128418,5.1992998123168945
1641191873682647800,3.595647705078125,2.2548999786376953,-0.7221999764442444,3.748999834060669
1641191873692648000,3.60564794921875,0.5609999895095825,-0.6572999954223633,2.937299966812134
1641191873702655700,3.61565576171875,-1.8523999452590942,-1.121999979019165,1.9769999980926514
1641191873712648000,3.62564794921875,-3.9333999156951904,-1.153999924659729,0.9884999990463257
1641191873722647800,3.635647705078125,-4.593400001525879,-1.2443000078201294,0.24719999730587006
1641191873732648000,3.64564794921875,-4.133699893951416,-0.7770000100135803,-0.48569998145103455
1641191873742647800,3.655647705078125,-4.924900054931641,0.16569998860359192,-1.296299934387207
1641191873752654000,3.665654052734375,-4.307199954986572,-0.6017000079154968,-1.7954999208450317
1641191873762647800,3.675647705078125,-1.7791999578475952,-1.6038999557495117,-2.077899932861328
1641191873772648000,3.68564794921875,0.4693000018596649,-1.4751999378204346,-3.66729998588562
1641191873782647800,3.695647705078125,1.740299940109253,-0.647599995136261,-6.046099662780762
1641191873792649500,3.7056494140625,1.6619999408721924,0.539900004863739,-7.243199825286865
1641191873802651000,3.71565087890625,-0.4193999767303467,0.9390999674797058,-6.1596999168396
1641191873812649500,3.7256494140625,-3.7087998390197754,0.6645999550819397,-4.825500011444092
1641191873822649300,3.7356494140625,-4.795499801635742,-0.0142000000923872,-3.6987998485565186
1641191873832649500,3.7456494140625,-3.483799934387207,0.06390000134706497,-3.337599992752075
1641191873842649300,3.7556494140625,-1.4275000095367432,0.0885000005364418,-2.993799924850464
1641191873852660200,3.76566015625,1.0037000179290771,-1.0627999305725098,-2.7737998962402344
1641191873862649300,3.7756494140625,2.6506998538970947,-1.8561999797821045,-2.5053000450134277
1641191873872649500,3.7856494140625,2.9776999950408936,-1.9072999954223633,-2.1930999755859375
1641191873882649300,3.7956494140625,2.657599925994873,-1.3217999935150146,-2.03629994392395
1641191873892649500,3.8056494140625,2.1071999073028564,-0.7617999911308289,-1.865299940109253
1641191873902657300,3.8156572265625,1.2443000078201294,-0.2680000066757202,-1.7559999227523804
1641191873912649500,3.8256494140625,1.4639999866485596,-0.2719999849796295,-1.7680000066757202
1641191873922649300,3.8356494140625,3.386399984359741,-0.3122999966144562,-1.5151000022888184
1641191873932649500,3.8456494140625,3.771099805831909,-0.280599981546402,-1.754599928855896
1641191873942649300,3.8556494140625,4.022599697113037,-0.726099967956543,-2.693699836730957
1641191873952658700,3.86565869140625,4.133599758148193,-1.291100025177002,-3.434299945831299
1641191873962649300,3.8756494140625,3.4069998264312744,-2.1389000415802,-2.3678998947143555
1641191873972649500,3.8856494140625,1.927899956703186,-2.086699962615967,-0.5741999745368958
1641191873982649300,3.8956494140625,1.1172000169754028,-1.347999930381775,1.1180000305175781
1641191873992649500,3.9056494140625,1.4817999601364136,-1.1863999366760254,2.498199939727783
1641191874002654000,3.915654052734375,2.5443999767303467,-1.3660999536514282,3.6875998973846436
1641191874012649500,3.9256494140625,3.9057998657226562,-1.5067999362945557,4.420599937438965
1641191874022649300,3.9356494140625,4.948899745941162,-1.0030999183654785,3.408900022506714
1641191874032649500,3.9456494140625,5.599799633026123,-0.6309999823570251,1.636799931526184
1641191874042649300,3.9556494140625,4.291500091552734,-0.46639999747276306,0.04800000041723251
1641191874052658700,3.96565869140625,1.455199956893921,-0.6672999858856201,0.5989999771118164
1641191874062649300,3.9756494140625,0.22280000150203705,-1.2187999486923218,2.843600034713745
1641191874072649500,3.9856494140625,-0.2766999900341034,-1.5820999145507812,4.563399791717529
1641191874082649300,3.9956494140625,-1.2494999170303345,-0.9735999703407288,4.748600006103516
1641191874092649500,4.0056494140625,-2.0729000568389893,-0.5011000037193298,5.640899658203125
1641191874102655700,4.01565576171875,-3.0374999046325684,-0.3287999927997589,6.683099746704102
1641191874112649500,4.0256494140625,-2.8875999450683594,-1.0871000289916992,8.576899528503418
1641191874122649300,4.0356494140625,-3.648699998855591,-1.357699990272522,9.495299339294434
1641191874132648000,4.04564794921875,-4.4070000648498535,-1.0335999727249146,6.80679988861084
1641191874142647800,4.055647705078125,-2.540099859237671,-0.13750000298023224,1.242900013923645
1641191874152652500,4.065652587890625,2.2226998805999756,1.379599928855896,-2.231799840927124
1641191874162647800,4.075647705078125,5.257499694824219,1.2667999267578125,-2.3285000324249268
1641191874172648000,4.08564794921875,5.258599758148193,0.703000009059906,-0.8867999911308289
1641191874182647800,4.095647705078125,4.198800086975098,0.5184999704360962,1.4663000106811523
1641191874192648000,4.10564794921875,3.395399808883667,0.07769999653100967,3.2993998527526855
1641191874202662000,4.115661865234375,4.300099849700928,0.21939998865127563,1.93149995803833
1641191874212649500,4.1256494140625,5.310100078582764,2.079699993133545,-2.325700044631958
1641191874222649300,4.1356494140625,6.919600009918213,4.287199974060059,-8.883099555969238
1641191874232649500,4.1456494140625,8.187899589538574,6.882299900054932,-14.258199691772461
1641191874242649300,4.1556494140625,6.360300064086914,7.871799945831299,-16.56559944152832
1641191874252655600,4.165655517578125,3.8274998664855957,7.3466997146606445,-13.198999404907227
1641191874262649300,4.1756494140625,2.405900001525879,6.629199981689453,-7.615299701690674
1641191874272649500,4.1856494140625,0.5688999891281128,5.547599792480469,-2.4296000003814697
1641191874282649300,4.1956494140625,-0.43779999017715454,4.142099857330322,0.07239999622106552
1641191874292649500,4.2056494140625,-1.6366000175476074,2.6938998699188232,-0.3310000002384186
1641191874302651000,4.21565087890625,0.5453000068664551,2.2100000381469727,-3.103799819946289
1641191874312649500,4.2256494140625,1.9937999248504639,2.7126998901367188,-10.095600128173828
1641191874322649300,4.2356494140625,-7.727599620819092,0.7498999834060669,-11.770099639892578
1641191874332649500,4.2456494140625,-43.69279861450195,-11.022799491882324,2.5909998416900635
1641191874342649300,4.2556494140625,-13.934999465942383,-2.3269999027252197,5.602200031280518
1641191874352657200,4.2656572265625,1.0399999618530273,-0.4878000020980835,-0.7333999872207642
1641191874362649300,4.2756494140625,4.818900108337402,-4.541399955749512,-6.048999786376953
1641191874372649500,4.2856494140625,6.500699996948242,-3.819399833679199,-2.773099899291992
1641191874382649300,4.2956494140625,5.358099937438965,-3.086400032043457,0.5981000065803528
1641191874392649500,4.3056494140625,4.761600017547607,-2.0981998443603516,-0.4935999810695648
1641191874402649300,4.3156494140625,3.552299976348877,-2.560299873352051,-0.4310999810695648
1641191874412649500,4.3256494140625,4.380499839782715,-1.3991999626159668,-0.6751999855041504
1641191874422649300,4.3356494140625,5.151899814605713,0.1841999888420105,-1.8567999601364136
1641191874432649500,4.3456494140625,5.4517998695373535,0.647599995136261,-3.1992998123168945
1641191874442655700,4.35565576171875,5.50469970703125,0.40209999680519104,-2.958099842071533
1641191874452649500,4.3656494140625,4.2769999504089355,-0.18940000236034393,0.3625999987125397
1641191874462649300,4.3756494140625,2.900099992752075,-0.6518999934196472,4.49839973449707
1641191874472649500,4.3856494140625,3.3020999431610107,-0.12539999186992645,6.048699855804443
1641191874482649300,4.3956494140625,2.9512999057769775,0.3659999966621399,6.48769998550415
1641191874492652500,4.405652587890625,-0.7003999948501587,0.6865999698638916,5.904200077056885
1641191874502647800,4.415647705078125,-3.1138999462127686,-0.0471000000834465,5.416399955749512
1641191874512648000,4.42564794921875,-6.108999729156494,-0.7229999899864197,4.622399806976318
1641191874522647800,4.435647705078125,-7.493399620056152,-0.7978000044822693,5.01230001449585
1641191874532648000,4.44564794921875,-5.562699794769287,-1.2237999439239502,6.527199745178223
1641191874542655700,4.45565576171875,-3.4667999744415283,-2.35479998588562,6.310499668121338
1641191874552648000,4.46564794921875,-2.4811999797821045,-2.56850004196167,5.637099742889404
1641191874562647800,4.475647705078125,-0.8208999633789062,-0.6705999970436096,5.381199836730957
1641191874572648000,4.48564794921875,-0.3431999981403351,-1.7411999702453613,3.91159987449646
1641191874582647800,4.495647705078125,-0.8071999549865723,-4.0040998458862305,2.4509999752044678
1641191874592658700,4.50565869140625,-0.827299952507019,-4.059000015258789,2.363600015640259
1641191874602647800,4.515647705078125,-0.4377000033855438,-3.5504000186920166,1.2222999334335327
1641191874612648000,4.52564794921875,-0.5597999691963196,-3.185299873352051,0.06629999727010727
1641191874622649300,4.5356494140625,0.06239999830722809,-2.449699878692627,-0.40849998593330383
1641191874632649500,4.5456494140625,0.755299985408783,-2.1547000408172607,5.661499977111816
1641191874642654000,4.555654052734375,-0.40230000019073486,-2.5820999145507812,8.880000114440918
1641191874652649500,4.5656494140625,-0.653499960899353,-3.015699863433838,11.171199798583984
1641191874662649300,4.5756494140625,-2.317199945449829,-2.0172998905181885,13.991999626159668
1641191874672649500,4.5856494140625,-1.3388999700546265,-2.743000030517578,7.584499835968018
1641191874682649300,4.5956494140625,-0.9827999472618103,-3.806999921798706,5.112099647521973
1641191874692657200,4.6056572265625,-0.07459999620914459,-2.6016998291015625,3.720599889755249
1641191874702649300,4.6156494140625,0.6845999956130981,-1.701799988746643,3.284099817276001
1641191874712649500,4.6256494140625,1.5041999816894531,-0.9724999666213989,3.1770999431610107
1641191874722649300,4.6356494140625,1.5442999601364136,-0.8691999912261963,2.1496999263763428
1641191874732649500,4.6456494140625,1.4160000085830688,-0.30699998140335083,-0.2321999967098236
1641191874742657300,4.6556572265625,0.5425999760627747,0.6092000007629395,-2.7330000400543213
1641191874752649500,4.6656494140625,-0.8619999885559082,1.7100999355316162,-4.5177998542785645
1641191874762649300,4.6756494140625,-2.0937998294830322,2.8750998973846436,-5.593400001525879
1641191874772649500,4.6856494140625,-3.7040998935699463,3.8451998233795166,-7.012899875640869
1641191874782649300,4.6956494140625,-4.177199840545654,3.98829984664917,-7.9315996170043945
1641191874792649500,4.7056494140625,-3.8802998065948486,3.948499917984009,-7.4440999031066895
1641191874802649300,4.7156494140625,-3.125999927520752,4.711400032043457,-4.334700107574463
1641191874812649500,4.7256494140625,-3.2139999866485596,2.622999906539917,-2.9258999824523926
1641191874822649300,4.7356494140625,-3.8195998668670654,0.2190999984741211,-2.6970999240875244
1641191874832649500,4.7456494140625,-3.4154000282287598,-1.652400016784668,-3.2939000129699707
1641191874842662000,4.755661865234375,-1.3046000003814697,-2.936300039291382,-5.383999824523926
1641191874852649500,4.7656494140625,0.3310000002384186,-3.8249998092651367,-10.609199523925781
1641191874862649300,4.7756494140625,1.6449999809265137,-4.832599639892578,-11.798699378967285
1641191874872651000,4.785651123046875,2.1160998344421387,-4.483699798583984,-9.767600059509277
1641191874882649300,4.7956494140625,2.246500015258789,-3.145399808883667,-5.550999641418457
1641191874892661800,4.805661865234375,2.412899971008301,-2.166300058364868,-2.985299825668335
1641191874902649300,4.8156494140625,2.268899917602539,-1.024899959564209,-0.5424999594688416
1641191874912648000,4.82564794921875,2.125699996948242,-1.0317000150680542,0.7486000061035156
1641191874922647800,4.835647705078125,1.904099941253662,-1.3700000047683716,2.0506999492645264
1641191874932648000,4.84564794921875,1.5965999364852905,-1.2264999151229858,3.8043999671936035
1641191874942654000,4.855654052734375,1.4467999935150146,-0.9391999840736389,5.430599689483643
1641191874952648000,4.86564794921875,1.4458999633789062,-0.9508000016212463,5.811800003051758
1641191874962647800,4.875647705078125,1.3112999200820923,-1.1491999626159668,5.14709997177124
1641191874972648000,4.88564794921875,0.5105999708175659,-0.9801999926567078,4.273200035095215
1641191874982647800,4.895647705078125,0.5436999797821045,-1.1756999492645264,2.9238998889923096
1641191874992658700,4.90565869140625,0.7050999999046326,-1.2697999477386475,1.5600999593734741
1641191875002647800,4.915647705078125,0.9282999634742737,-1.6779999732971191,-0.2630999982357025
1641191875012648000,4.92564794921875,1.3317999839782715,-1.8695999383926392,-2.501499891281128
1641191875022647800,4.935647705078125,2.0755999088287354,-1.8075000047683716,-3.255499839782715
1641191875032648000,4.94564794921875,3.6153998374938965,-1.316999912261963,-3.3950998783111572
1641191875042658800,4.955658935546875,4.705699920654297,-1.2903000116348267,-2.5432000160217285
1641191875052649500,4.9656494140625,5.372399806976318,-1.3281999826431274,-0.7561999559402466
1641191875062649300,4.9756494140625,5.07889986038208,-0.7537999749183655,0.5482000112533569
1641191875072649500,4.9856494140625,4.359899997711182,0.5051000118255615,0.9692999720573425
1641191875082649300,4.9956494140625,3.4742000102996826,2.083099842071533,0.9322999715805054
1641191875092652500,5.005652587890625,2.2558000087738037,2.937299966812134,1.257599949836731
1641191875102649300,5.0156494140625,1.4889999628067017,3.0779998302459717,1.9941999912261963
1641191875112649500,5.0256494140625,0.5081999897956848,2.631500005722046,2.5195000171661377
1641191875122649300,5.0356494140625,-0.22450000047683716,1.952299952507019,2.6263999938964844
1641191875132649500,5.0456494140625,-0.20149999856948853,1.4757000207901,2.510699987411499
1641191875142658800,5.055658935546875,0.07009999454021454,1.529599905014038,2.1445000171661377
1641191875152649500,5.0656494140625,0.2565999925136566,1.9357999563217163,1.6514999866485596
1641191875162649300,5.0756494140625,0.23709999024868011,2.5441999435424805,1.3137999773025513
1641191875172649500,5.0856494140625,0.39890000224113464,3.453699827194214,0.9650999903678894
1641191875182649300,5.0956494140625,0.17759999632835388,4.537600040435791,0.5083999633789062
1641191875192657200,5.1056572265625,-0.09099999815225601,5.608500003814697,-0.11979999393224716
1641191875202649300,5.1156494140625,-0.3849000036716461,6.802000045776367,-0.950499951839447
1641191875212649500,5.1256494140625,-0.48339998722076416,7.249499797821045,-1.0401999950408936
1641191875222649300,5.1356494140625,-0.5288000106811523,6.937999725341797,-0.5891000032424927
1641191875232649500,5.1456494140625,-0.5828999876976013,6.221199989318848,-0.1824999898672104
1641191875242652400,5.15565234375,-0.7117999792098999,5.706099987030029,0.08689999580383301
1641191875252649500,5.1656494140625,-0.9809999465942383,4.876699924468994,0.6917999982833862
1641191875262649300,5.1756494140625,-1.3544999361038208,3.3999998569488525,1.7680999040603638
1641191875272649500,5.1856494140625,-1.5850999355316162,1.0353000164031982,2.929499864578247
1641191875282649300,5.1956494140625,-1.886099934577942,-1.9895999431610107,4.507400035858154
1641191875292658700,5.20565869140625,-2.143899917602539,-7.7191996574401855,6.669699668884277
1641191875302649300,5.2156494140625,-1.9731999635696411,-12.903999328613281,8.651100158691406
1641191875312649500,5.2256494140625,-1.2795000076293945,-13.796499252319336,6.922799587249756
1641191875322649300,5.2356494140625,-1.4089000225067139,-11.630399703979492,2.563699960708618
1641191875332649500,5.2456494140625,-1.7634999752044678,-9.562699317932129,-2.3389999866485596
1641191875342655700,5.25565576171875,-2.1884000301361084,-8.289999961853027,-6.320399761199951
1641191875352649500,5.2656494140625,-2.4928998947143555,-7.300699710845947,-7.360299587249756
1641191875362649300,5.2756494140625,-2.8932998180389404,-5.74370002746582,-5.8954997062683105
1641191875372648000,5.28564794921875,-2.7811999320983887,-4.470799922943115,-5.784800052642822
1641191875382647800,5.295647705078125,-2.3439998626708984,-5.362599849700928,-5.42140007019043
1641191875392657200,5.3056572265625,-1.5654000043869019,-5.593699932098389,-5.01069974899292
1641191875402647800,5.315647705078125,-0.7714999914169312,-4.773399829864502,-4.441199779510498
1641191875412648000,5.32564794921875,0.020899999886751175,-4.103499889373779,-3.816200017929077
1641191875422647800,5.335647705078125,0.6252999901771545,-4.283199787139893,-3.006999969482422
1641191875432648000,5.34564794921875,1.302299976348877,-4.626100063323975,-1.7698999643325806
1641191875442654000,5.355654052734375,1.740899920463562,-4.552099704742432,-0.3928000032901764
1641191875452648000,5.36564794921875,2.084699869155884,-4.027499675750732,1.1129000186920166
1641191875462649300,5.3756494140625,2.214200019836426,-3.0739998817443848,2.425299882888794
1641191875472649500,5.3856494140625,2.1928000450134277,-1.5059999227523804,2.7474000453948975
1641191875482649300,5.3956494140625,2.031100034713745,-0.2533999979496002,3.0702998638153076
1641191875492651000,5.405651123046875,1.9305999279022217,0.23179998993873596,3.6935999393463135
1641191875502649300,5.4156494140625,1.7192000150680542,0.47999998927116394,4.358399868011475
1641191875512649500,5.4256494140625,1.2279000282287598,0.7766000032424927,5.013299942016602
1641191875522649300,5.4356494140625,0.2897000014781952,1.1799999475479126,5.656399726867676
1641191875532649500,5.4456494140625,-0.2678000032901764,2.1157000064849854,5.381099700927734
1641191875542655700,5.45565576171875,-0.8185999989509583,3.0634000301361084,4.693900108337402
1641191875552649500,5.4656494140625,-1.4404000043869019,3.6178998947143555,4.100299835205078
1641191875562649300,5.4756494140625,-2.415299892425537,4.0854997634887695,2.969399929046631
1641191875572649500,5.4856494140625,-3.168099880218506,4.187699794769287,1.4866999387741089
1641191875582649300,5.4956494140625,-3.188199996948242,4.207600116729736,0.5475999712944031
1641191875592655600,5.505655517578125,-2.2279000282287598,4.335599899291992,1.2860000133514404
1641191875602649300,5.5156494140625,-0.34379997849464417,4.415999889373779,2.7380998134613037
1641191875612649500,5.5256494140625,1.3454999923706055,5.537600040435791,2.787299871444702
1641191875622649300,5.5356494140625,2.78629994392395,5.360899925231934,4.83929967880249
1641191875632649500,5.5456494140625,4.174299716949463,5.7027997970581055,5.426300048828125
1641191875642657300,5.5556572265625,4.7241997718811035,5.852299690246582,3.65310001373291
1641191875652649500,5.5656494140625,5.01669979095459,5.371999740600586,2.192699909210205
1641191875662649300,5.5756494140625,4.749799728393555,4.5854997634887695,1.9581999778747559
1641191875672649500,5.5856494140625,4.3155999183654785,3.707399845123291,2.0527000427246094
1641191875682649300,5.5956494140625,3.6643998622894287,2.649399995803833,1.765299916267395
1641191875692655600,5.605655517578125,3.116299867630005,1.6061999797821045,1.3925999402999878
1641191875702649300,5.6156494140625,2.2460999488830566,0.6642999649047852,1.0061999559402466
1641191875712649500,5.6256494140625,1.218400001525879,0.2572000026702881,0.33059999346733093
1641191875722649300,5.6356494140625,-0.08249999582767487,-0.011299999430775642,-0.39989998936653137
1641191875732649500,5.6456494140625,-2.500999927520752,-0.4745999872684479,-1.4706000089645386
1641191875742652400,5.65565234375,-4.378999710083008,-1.236899971961975,-1.9994999170303345
1641191875752648000,5.66564794921875,-5.7683000564575195,-2.829200029373169,-1.6526999473571777
1641191875762647800,5.675647705078125,-8.219799995422363,-4.889100074768066,-1.4205999374389648
1641191875772648000,5.68564794921875,-17.01219940185547,-7.135200023651123,-3.381999969482422
1641191875782649300,5.6956494140625,-26.327199935913086,-9.627299308776855,-6.2540998458862305
1641191875792654000,5.705654052734375,-20.80340003967285,-8.905499458312988,-3.7868998050689697
1641191875802647800,5.715647705078125,-12.711400032043457,-6.055099964141846,-1.402899980545044
1641191875812648000,5.72564794921875,-3.927500009536743,-3.3294999599456787,-0.021299999207258224
1641191875822647800,5.735647705078125,5.529699802398682,-1.3048999309539795,2.485599994659424
1641191875832649500,5.7456494140625,13.165499687194824,-0.6690999865531921,3.44599986076355
1641191875842660400,5.755660400390625,15.058399200439453,-1.3837999105453491,3.4689998626708984
1641191875852648000,5.76564794921875,12.564299583435059,-2.2121999263763428,3.0669000148773193
1641191875862647800,5.775647705078125,8.688199996948242,-2.4512999057769775,1.8421999216079712
1641191875872648000,5.78564794921875,5.84060001373291,-2.735499858856201,0.6843000054359436
1641191875882649300,5.7956494140625,4.09689998626709,-3.64520001411438,0.04659999907016754
1641191875892654000,5.805654052734375,3.008999824523926,-4.682199954986572,-0.08339999616146088
1641191875902649300,5.8156494140625,2.6556999683380127,-4.910099983215332,0.4553000032901764
1641191875912649500,5.8256494140625,2.7816998958587646,-4.140699863433838,2.141900062561035
1641191875922649300,5.8356494140625,2.919800043106079,-2.913800001144409,2.665099859237671
1641191875932649500,5.8456494140625,3.128000020980835,-1.1567999124526978,2.116499900817871
1641191875942658800,5.855658935546875,3.224900007247925,0.03749999776482582,1.5525000095367432
1641191875952649500,5.8656494140625,3.4505999088287354,0.34199997782707214,1.2482999563217163
1641191875962649300,5.8756494140625,3.646399974822998,0.1419999897480011,0.9002999663352966
1641191875972649500,5.8856494140625,3.774399995803833,-0.3130999803543091,0.3317999839782715
1641191875982649300,5.8956494140625,4.029099941253662,-0.5245999693870544,-0.30719998478889465
1641191875992654000,5.905654052734375,4.116799831390381,-0.25599998235702515,-0.9771999716758728
1641191876002649300,5.9156494140625,4.003499984741211,0.6288999915122986,-1.7120000123977661
1641191876012649500,5.9256494140625,3.6754000186920166,1.574199914932251,-2.158599853515625
1641191876022649300,5.9356494140625,3.297499895095825,2.51039981842041,-2.367499828338623
1641191876032649500,5.9456494140625,2.778899908065796,3.1994998455047607,-2.006999969482422
1641191876042657300,5.9556572265625,2.2007999420166016,3.4101998805999756,-1.0788999795913696
1641191876052649500,5.9656494140625,1.8044999837875366,3.179499864578247,-0.011299999430775642
1641191876062649300,5.9756494140625,1.5825999975204468,2.742799997329712,0.9140999913215637
1641191876072649500,5.9856494140625,1.3780999183654785,2.699399948120117,1.299399971961975
1641191876082649300,5.9956494140625,1.1410999298095703,2.9289000034332275,1.3711999654769897
1641191876092654000,6.005654052734375,0.8310999870300293,3.3264999389648438,1.309399962425232
1641191876102649300,6.0156494140625,0.5162999629974365,4.028500080108643,1.0835000276565552
1641191876112649500,6.0256494140625,0.30480000376701355,4.642299652099609,0.812999963760376
1641191876122649300,6.0356494140625,-0.1070999950170517,4.285200119018555,1.4347000122070312
1641191876132649500,6.0456494140625,-0.4120999872684479,4.321499824523926,1.570599913597107
1641191876142658800,6.055658935546875,-0.5715999603271484,4.297800064086914,1.3557000160217285
1641191876152649500,6.0656494140625,-1.153499960899353,3.7431998252868652,1.6912999153137207
1641191876162647800,6.075647705078125,-1.810499906539917,3.1793999671936035,1.9119999408721924
1641191876172648000,6.08564794921875,-2.168799877166748,2.6046998500823975,2.009899854660034
1641191876182647800,6.095647705078125,-2.557499885559082,1.9404000043869019,2.202399969100952
1641191876192660200,6.10566015625,-2.7163000106811523,1.1371999979019165,2.347399950027466
1641191876202647800,6.115647705078125,-2.6415998935699463,0.5480999946594238,2.209399938583374
1641191876212648000,6.12564794921875,-2.6898000240325928,0.21199999749660492,1.6869999170303345
1641191876222647800,6.135647705078125,-2.8969998359680176,-0.2928999960422516,1.2132999897003174
1641191876232648000,6.14564794921875,-2.8901000022888184,-1.708400011062622,1.2905999422073364
1641191876242652400,6.15565234375,-3,-3.647599935531616,1.4957000017166138
1641191876252648000,6.16564794921875,-3.186199903488159,-5.239199638366699,1.1209999322891235
1641191876262647800,6.175647705078125,-4.435499668121338,-5.908799648284912,-0.0729999989271164
1641191876272648000,6.18564794921875,-6.297199726104736,-5.614699840545654,-2.061499834060669
1641191876282647800,6.195647705078125,-6.95419979095459,-5.133999824523926,-3.224299907684326
1641191876292657200,6.2056572265625,-5.466899871826172,-4.86299991607666,-3.023900032043457
1641191876302649300,6.2156494140625,-3.2704999446868896,-4.869999885559082,-2.1392998695373535
1641191876312649500,6.2256494140625,-1.9749000072479248,-4.786299705505371,-2.0125999450683594
1641191876322649300,6.2356494140625,-1.0756999254226685,-4.641599655151367,-2.428999900817871
1641191876332649500,6.2456494140625,-0.48729997873306274,-4.7540998458862305,-2.6668999195098877
1641191876342660400,6.255660400390625,0.11829999834299088,-4.30679988861084,-3.2314999103546143
1641191876352649500,6.2656494140625,0.7211999893188477,-4.124399662017822,-2.9422998428344727
1641191876362649300,6.2756494140625,1.3666999340057373,-4.050099849700928,-1.7386000156402588
1641191876372649500,6.2856494140625,1.7874000072479248,-3.1046998500823975,-1.4495999813079834
1641191876382649300,6.2956494140625,2.0658998489379883,-2.2988998889923096,-1.240899920463562
1641191876392657200,6.3056572265625,2.3977999687194824,-2.898399829864502,0.18879999220371246
1641191876402649300,6.3156494140625,2.6270999908447266,-3.750699996948242,1.5299999713897705
1641191876412649500,6.3256494140625,2.6847000122070312,-3.5576999187469482,2.0020999908447266
1641191876422649300,6.3356494140625,2.633999824523926,-3.9614999294281006,2.8768999576568604
1641191876432649500,6.3456494140625,2.3534998893737793,-3.728599786758423,3.206899881362915
1641191876442654000,6.355654052734375,2.139899969100952,-2.9385998249053955,3.4036998748779297
1641191876452649500,6.3656494140625,1.7858999967575073,-2.490999937057495,3.882200002670288
1641191876462649300,6.3756494140625,1.5418999195098877,-1.7269999980926514,3.237499952316284
1641191876472649500,6.3856494140625,1.4458999633789062,-1.0152000188827515,3.238799810409546
1641191876482649300,6.3956494140625,1.261099934577942,-0.2848999798297882,3.5414998531341553
1641191876492658700,6.40565869140625,1.1776999235153198,1.1001999378204346,3.2827999591827393
1641191876502649300,6.4156494140625,1.080299973487854,1.688499927520752,3.094399929046631
1641191876512649500,6.4256494140625,1.076300024986267,2.386899948120117,2.485299825668335
1641191876522649300,6.4356494140625,1.3895000219345093,3.8658998012542725,1.053399920463562
1641191876532649500,6.4456494140625,2.0543999671936035,5.100800037384033,-0.03869999945163727
1641191876542654000,6.455654052734375,2.8671000003814697,4.572700023651123,0.5674999952316284
1641191876552649500,6.4656494140625,3.0590999126434326,3.0979998111724854,2.1106998920440674
1641191876562649300,6.4756494140625,3.34309983253479,3.964599847793579,1.2821999788284302
1641191876572649500,6.4856494140625,3.725399971008301,5.6419997215271,-0.17409999668598175
1641191876582649300,6.4956494140625,3.9843997955322266,7.222399711608887,-0.8198999762535095
1641191876592658700,6.50565869140625,4.164599895477295,8.143599510192871,-0.8968999981880188
1641191876602649300,6.5156494140625,3.9667999744415283,8.529500007629395,-1.0059000253677368
1641191876612649500,6.5256494140625,2.9696998596191406,8.498199462890625,-1.419600009918213
1641191876622647800,6.535647705078125,1.7100999355316162,8.104700088500977,-1.892199993133545
1641191876632649500,6.5456494140625,0.770799994468689,7.48199987411499,-1.9764999151229858
1641191876642657300,6.5556572265625,0.38199999928474426,7.025699615478516,-1.2134000062942505
1641191876652648000,6.56564794921875,0.7626999616622925,6.661999702453613,-0.3262999951839447
1641191876662647800,6.575647705078125,0.9863999485969543,6.180599689483643,-0.007499999832361937
1641191876672648000,6.58564794921875,0.7940999865531921,5.566799640655518,0.5011000037193298
1641191876682647800,6.595647705078125,0.4315999746322632,3.6303999423980713,0.7550999522209167
1641191876692658700,6.60565869140625,0.19709999859333038,1.767799973487854,0.8241999745368958
1641191876702647800,6.615647705078125,0.006000000052154064,-0.4421999752521515,0.9147999882698059
1641191876712648000,6.62564794921875,-0.7599999904632568,-2.9946999549865723,1.5640000104904175
1641191876722649300,6.6356494140625,-2.7769999504089355,-6.1753997802734375,3.0931999683380127
1641191876732649500,6.6456494140625,-11.096799850463867,-10.301599502563477,3.8778998851776123
1641191876742657300,6.6556572265625,-21.71539878845215,-14.893399238586426,0.6211000084877014
1641191876752649500,6.6656494140625,-17.701200485229492,-13.298699378967285,-2.380199909210205
1641191876762649300,6.6756494140625,-12.9375,-8.569899559020996,-4.3678998947143555
1641191876772649500,6.6856494140625,-5.677499771118164,-4.314300060272217,-4.079100131988525
1641191876782649300,6.6956494140625,1.548200011253357,-1.5776000022888184,-1.58489990234375
1641191876792655600,6.705655517578125,7.614500045776367,0.5537999868392944,2.012199878692627
1641191876802649300,6.7156494140625,10.392399787902832,0.9132999777793884,2.058799982070923
1641191876812649500,6.7256494140625,8.868800163269043,-0.4147000014781952,1.8624999523162842
1641191876822649300,6.7356494140625,6.395899772644043,-1.771399974822998,2.1849000453948975
1641191876832649500,6.7456494140625,4.099599838256836,-2.836199998855591,2.394700050354004
1641191876842666500,6.75566650390625,2.5899999141693115,-3.60479998588562,2.2723000049591064
1641191876852649500,6.7656494140625,2.0174999237060547,-4.245599746704102,1.8854999542236328
1641191876862649300,6.7756494140625,2.086699962615967,-4.66409969329834,1.2777999639511108
1641191876872649500,6.7856494140625,2.5813000202178955,-4.796099662780762,1.3631999492645264
1641191876882649300,6.7956494140625,3.6158998012542725,-4.277299880981445,1.5346999168395996
1641191876892661800,6.805661865234375,4.699599742889404,-3.319899797439575,1.458799958229065
1641191876902649300,6.8156494140625,5.481800079345703,-2.4831998348236084,1.0530999898910522
1641191876912649500,6.8256494140625,5.948899745941162,-1.8203999996185303,0.5358999967575073
1641191876922649300,6.8356494140625,5.957900047302246,-1.477199912071228,0.1347000002861023
1641191876932649500,6.8456494140625,5.523299694061279,-1.313599944114685,-0.17299999296665192
1641191876942662000,6.855661865234375,4.701200008392334,-1.1105999946594238,-0.40289998054504395
1641191876952649500,6.8656494140625,3.6315999031066895,-0.7821999788284302,-0.35979998111724854
1641191876962649300,6.8756494140625,2.7995998859405518,-0.23519998788833618,-0.32569998502731323
1641191876972649500,6.8856494140625,2.3274998664855957,0.41769999265670776,-0.4641999900341034
1641191876982649300,6.8956494140625,2.041300058364868,1.1567999124526978,-0.5591999888420105
1641191876992654000,6.905654052734375,1.9089999198913574,1.8375999927520752,-0.6025999784469604
1641191877002649300,6.9156494140625,1.8359999656677246,2.5125999450683594,-0.5479999780654907
1641191877012649500,6.9256494140625,1.7069998979568481,3.130199909210205,-0.4958999752998352
1641191877022649300,6.9356494140625,1.6279000043869019,3.613600015640259,-0.4747999906539917
1641191877032649500,6.9456494140625,1.6366000175476074,4.081599712371826,-0.512499988079071
1641191877042654000,6.955654052734375,1.730699896812439,4.490900039672852,-0.5726999640464783
1641191877052649500,6.9656494140625,1.6581999063491821,4.718299865722656,-0.5551999807357788
1641191877062647800,6.975647705078125,1.405900001525879,4.579599857330322,-0.41749998927116394
1641191877072648000,6.98564794921875,1.049799919128418,4.228099822998047,-0.3959999978542328
1641191877082647800,6.995647705078125,0.6248999834060669,3.769199848175049,-0.38089999556541443
1641191877092652500,7.005652587890625,0.3208000063896179,3.261199951171875,-0.18850000202655792
1641191877102647800,7.015647705078125,0.02279999852180481,2.8901000022888184,0.12759999930858612
1641191877112648000,7.02564794921875,-0.3967999815940857,2.6087000370025635,0.6003000140190125
1641191877122647800,7.035647705078125,-0.6279000043869019,2.4203999042510986,1.0889999866485596
1641191877132648000,7.04564794921875,-0.9578999876976013,2.2233998775482178,1.801800012588501
1641191877142658800,7.055658935546875,-1.1697999238967896,2.0055999755859375,2.3671000003814697
1641191877152649500,7.0656494140625,-1.2202999591827393,1.7279999256134033,2.633699893951416
1641191877162649300,7.0756494140625,-1.333899974822998,1.233799934387207,2.617799997329712
1641191877172649500,7.0856494140625,-2.0954999923706055,0.6800999641418457,2.3613998889923096
1641191877182649300,7.0956494140625,-2.927299976348877,-0.06359999626874924,2.2395999431610107
1641191877192655600,7.105655517578125,-3.574399948120117,-1.0063999891281128,2.0676000118255615
1641191877202649300,7.1156494140625,-4.468400001525879,-2.1013998985290527,1.747499942779541
1641191877212649500,7.1256494140625,-5.075599670410156,-3.363499879837036,1.4542999267578125
1641191877222649300,7.1356494140625,-5.736199855804443,-4.5269999504089355,0.9980999827384949
1641191877232649500,7.1456494140625,-7.134500026702881,-5.348899841308594,0.16429999470710754
1641191877242662000,7.155661865234375,-7.405999660491943,-5.422999858856201,-0.6589999794960022
1641191877252649500,7.1656494140625,-5.702699661254883,-4.786299705505371,-1.003499984741211
1641191877262649300,7.1756494140625,-3.7533998489379883,-4.018099784851074,-1.469599962234497
1641191877272649500,7.1856494140625,-2.6429998874664307,-3.603299856185913,-2.167099952697754
1641191877282649300,7.1956494140625,-1.7333999872207642,-2.9233999252319336,-2.3566999435424805
1641191877292660200,7.20566015625,-1.6476999521255493,-2.4509999752044678,-3.769199848175049
1641191877302649300,7.2156494140625,-1.3361999988555908,-1.9263999462127686,-4.59559965133667
1641191877312649500,7.2256494140625,-0.6405999660491943,-1.500599980354309,-3.851099967956543
1641191877322649300,7.2356494140625,0.24300000071525574,-1.6222000122070312,-2.2664999961853027
1641191877332649500,7.2456494140625,0.8828999996185303,-2.1977999210357666,-1.156499981880188
1641191877342660400,7.255660400390625,1.2254999876022339,-3.089900016784668,-0.2777000069618225
1641191877352649500,7.2656494140625,1.4907000064849854,-4.013499736785889,0.5069000124931335
1641191877362649300,7.2756494140625,1.8424999713897705,-4.6641998291015625,1.136699914932251
1641191877372649500,7.2856494140625,2.3344998359680176,-4.89709997177124,1.6348999738693237
1641191877382649300,7.2956494140625,3.0153000354766846,-4.535799980163574,1.9504998922348022
1641191877392657200,7.3056572265625,3.811999797821045,-3.746299982070923,2.232800006866455
1641191877402649300,7.3156494140625,4.252599716186523,-2.821199893951416,2.1747000217437744
1641191877412649500,7.3256494140625,4.286999702453613,-1.9510999917984009,2.2642998695373535
1641191877422649300,7.3356494140625,4.093100070953369,-1.1523000001907349,2.3046000003814697
1641191877432649500,7.3456494140625,3.342099905014038,-0.3139999806880951,2.1952998638153076
1641191877442658800,7.355658935546875,2.1714999675750732,0.4026999771595001,2.4579999446868896
1641191877452649500,7.3656494140625,-0.6033999919891357,0.550000011920929,3.2525999546051025
1641191877462647800,7.375647705078125,-4.6915998458862305,0.33809998631477356,2.886199951171875
1641191877472649500,7.3856494140625,-4.674599647521973,0.817799985408783,2.0404000282287598
1641191877482647800,7.395647705078125,-1.7623999118804932,1.916700005531311,2.2578999996185303
1641191877492654000,7.405654052734375,1.4474999904632568,3.3541998863220215,2.8436999320983887
1641191877502647800,7.415647705078125,4.148799896240234,4.586899757385254,3.2919998168945312
1641191877512648000,7.42564794921875,5.297299861907959,5.1717000007629395,3.1608998775482178
1641191877522647800,7.435647705078125,5.646399974822998,5.4679999351501465,2.933199882507324
1641191877532648000,7.44564794921875,5.627199649810791,5.65809965133667,2.4465999603271484
1641191877542660400,7.455660400390625,4.992599964141846,5.759399890899658,1.9782999753952026
1641191877552649500,7.4656494140625,3.9210000038146973,5.626399993896484,1.726099967956543
1641191877562649300,7.4756494140625,3.015899896621704,5.38539981842041,1.4953999519348145
1641191877572649500,7.4856494140625,2.687299966812134,5.1092000007629395,1.1115000247955322
1641191877582649300,7.4956494140625,2.883999824523926,4.798399925231934,0.795699954032898
1641191877592655600,7.505655517578125,3.100600004196167,4.42519998550415,0.7179999947547913
1641191877602649300,7.5156494140625,2.897899866104126,3.9526000022888184,0.6563000082969666
1641191877612649500,7.5256494140625,2.472899913787842,3.336400032043457,0.6105999946594238
1641191877622649300,7.5356494140625,1.729699969291687,2.5125999450683594,0.33319997787475586
1641191877632649500,7.5456494140625,0.8339999914169312,1.6524999141693115,0.20059999823570251
1641191877642657300,7.5556572265625,-0.4456000030040741,0.8881999850273132,0.1419999897480011
1641191877652649500,7.5656494140625,-2.4944000244140625,0.17099998891353607,-0.07270000129938126
1641191877662649300,7.5756494140625,-4.929599761962891,-0.6998999714851379,-0.46289998292922974
1641191877672649500,7.5856494140625,-7.69189977645874,-2.087399959564209,-0.7269999980926514
1641191877682649300,7.5956494140625,-12.18340015411377,-4.092400074005127,-1.5262999534606934
1641191877692652500,7.605652587890625,-16.38119888305664,-6.448299884796143,-3.1232998371124268
1641191877702649300,7.6156494140625,-13.434499740600586,-7.645199775695801,-4.416899681091309
1641191877712649500,7.6256494140625,-10.465099334716797,-6.774099826812744,-5.5081000328063965
1641191877722649300,7.6356494140625,-5.634900093078613,-4.1631999015808105,-5.430699825286865
1641191877732649500,7.6456494140625,0.08479999750852585,-1.4390000104904175,-4.193399906158447
1641191877742654000,7.655654052734375,2.9783999919891357,-0.8556999564170837,-1.528499960899353
1641191877752649500,7.6656494140625,5.732699871063232,-1.7936999797821045,1.5404999256134033
1641191877762649300,7.6756494140625,7.6927995681762695,-2.8267998695373535,2.332900047302246
1641191877772649500,7.6856494140625,6.229799747467041,-4.267899990081787,2.372299909591675
1641191877782649300,7.6956494140625,3.9437999725341797,-5.460099697113037,2.6187000274658203
1641191877792654000,7.705654052734375,2.306299924850464,-5.8354997634887695,3.1603000164031982
1641191877802649300,7.7156494140625,1.3380999565124512,-4.986799716949463,3.989499807357788
1641191877812649500,7.7256494140625,1.3224999904632568,-2.7535998821258545,4.560100078582764
1641191877822649300,7.7356494140625,1.8533999919891357,-0.9858999848365784,4.393399715423584
1641191877832649500,7.7456494140625,2.637399911880493,0.0044999998062849045,3.8486998081207275
1641191877842652400,7.75565234375,3.435499906539917,0.11710000038146973,2.984099864959717
1641191877852649500,7.7656494140625,3.9908998012542725,-0.29249998927116394,2.532899856567383
1641191877862649300,7.7756494140625,4.348899841308594,-0.8175999522209167,2.259999990463257
1641191877872649500,7.7856494140625,4.514999866485596,-1.3101999759674072,1.9406999349594116
1641191877882649300,7.7956494140625,4.372299671173096,-1.6627999544143677,1.4955999851226807
1641191877892652500,7.805652587890625,4.0355000495910645,-1.7572999000549316,1.1138999462127686
1641191877902647800,7.815647705078125,3.5358998775482178,-1.5549999475479126,0.8319000005722046
1641191877912648000,7.82564794921875,2.9475998878479004,-1.0751999616622925,0.4106999933719635
1641191877922647800,7.835647705078125,2.4928998947143555,-0.3725999891757965,0.018799999728798866
1641191877932648000,7.84564794921875,2.1547999382019043,0.439300000667572,-0.5232999920845032
1641191877942652400,7.85565234375,1.976099967956543,1.1136999130249023,-0.7563999891281128
1641191877952648000,7.86564794921875,1.8693000078201294,1.6211999654769897,-0.8860999941825867
1641191877962647800,7.875647705078125,1.7943999767303467,2.0894999504089355,-0.9541999697685242
1641191877972649500,7.8856494140625,1.7226999998092651,2.51039981842041,-0.9045999646186829
1641191877982649300,7.8956494140625,1.590399980545044,2.8794000148773193,-0.8744999766349792
1641191877992661800,7.905661865234375,1.5187000036239624,3.161799907684326,-0.8376999497413635
1641191878002649300,7.9156494140625,1.535499930381775,3.405099868774414,-0.8062999844551086
1641191878012649500,7.9256494140625,1.5812000036239624,3.481799840927124,-0.7422999739646912
1641191878022649300,7.9356494140625,1.566999912261963,3.513000011444092,-0.6297999620437622
1641191878032649500,7.9456494140625,1.5175999402999878,3.382699966430664,-0.39890000224113464
1641191878042657300,7.9556572265625,1.4814999103546143,3.2154998779296875,-0.25450000166893005
1641191878052649500,7.9656494140625,1.4304999113082886,3.0369999408721924,-0.22519999742507935
1641191878062649300,7.9756494140625,1.239300012588501,2.8416998386383057,-0.1281999945640564
1641191878072649500,7.9856494140625,0.9596999883651733,2.676300048828125,0.02539999969303608
1641191878082649300,7.9956494140625,0.6410999894142151,2.511199951171875,0.20679999887943268
1641191878092655600,8.005655517578125,0.30239999294281006,2.456199884414673,0.43689998984336853
1641191878102649300,8.0156494140625,0.041200000792741776,2.3202998638153076,0.7527999877929688
1641191878112649500,8.0256494140625,-0.28380000591278076,2.1740000247955322,1.082800030708313
1641191878122649300,8.0356494140625,-0.8446999788284302,1.9957000017166138,1.3767999410629272
1641191878132649500,8.0456494140625,-1.5844999551773071,1.7292999029159546,1.459299921989441
1641191878142658800,8.055658935546875,-2.3777999877929688,1.1948000192642212,1.263700008392334
1641191878152649500,8.0656494140625,-2.9784998893737793,0.43059998750686646,1.1883000135421753
1641191878162649300,8.0756494140625,-3.5814998149871826,-0.446399986743927,1.2077999114990234
1641191878172649500,8.0856494140625,-4.2729997634887695,-1.2582999467849731,1.2228000164031982
1641191878182649300,8.0956494140625,-4.994800090789795,-2.1198999881744385,1.2518999576568604
1641191878192652500,8.105652587890624,-5.80019998550415,-3.1161999702453613,1.2031999826431274
1641191878202649300,8.1156494140625,-7.072199821472168,-4.030600070953369,0.7789999842643738
1641191878212649500,8.1256494140625,-7.928699970245361,-4.527400016784668,0.17080000042915344
1641191878222649300,8.1356494140625,-6.957399845123291,-4.656499862670898,-0.3734000027179718
1641191878232649500,8.1456494140625,-4.890699863433838,-4.872499942779541,-0.770799994468689
1641191878242655700,8.15565576171875,-3.737499952316284,-5.620299816131592,-1.708799958229065
1641191878252648000,8.16564794921875,-3.418299913406372,-6.739099979400635,-3.970099925994873
1641191878262647800,8.175647705078125,-3.174299955368042,-7.266899585723877,-6.340399742126465
1641191878272648000,8.18564794921875,-2.4405999183654785,-6.2795000076293945,-7.346799850463867
1641191878282647800,8.195647705078125,-0.858199954032898,-4.190000057220459,-5.32859992980957
1641191878292654000,8.205654052734374,0.45319998264312744,-2.503999948501587,-2.9247000217437744
1641191878302647800,8.215647705078124,1.1619999408721924,-1.684399962425232,-1.5425000190734863
1641191878312649500,8.2256494140625,1.611299991607666,-1.4577999114990234,-0.9751999974250793
1641191878322647800,8.235647705078126,1.916599988937378,-1.6840999126434326,-0.6607999801635742
1641191878332648000,8.24564794921875,2.1131999492645264,-2.262399911880493,-0.2797999978065491
1641191878342658800,8.255658935546874,2.2251999378204346,-2.985999822616577,0.22589999437332153
1641191878352648000,8.26564794921875,2.27239990234375,-3.488499879837036,0.9480999708175659
1641191878362647800,8.275647705078125,2.241299867630005,-3.663599967956543,1.5658999681472778
1641191878372648000,8.28564794921875,2.303799867630005,-3.1489999294281006,1.801800012588501
1641191878382647800,8.295647705078125,2.3817999362945557,-2.25,1.892199993133545
1641191878392657200,8.3056572265625,2.409899950027466,-1.3694000244140625,1.994499921798706
1641191878402649300,8.3156494140625,2.5767998695373535,-0.46879997849464417,2.23580002784729
1641191878412649500,8.3256494140625,2.7672998905181885,0.36419999599456787,2.507499933242798
1641191878422649300,8.3356494140625,2.8690998554229736,1.2350000143051147,2.8671998977661133
1641191878432652500,8.345652587890624,2.994799852371216,2.062000036239624,3.320199966430664
1641191878442655700,8.35565576171875,3.2597999572753906,2.7527999877929688,3.9735000133514404
1641191878452649500,8.3656494140625,3.1907999515533447,3.4208998680114746,4.59499979019165
1641191878462649300,8.3756494140625,3.1078999042510986,3.9499998092651367,5.11929988861084
1641191878472649500,8.3856494140625,3.152899980545044,4.446899890899658,5.407599925994873
1641191878482649300,8.3956494140625,2.8332998752593994,4.73769998550415,5.536999702453613
1641191878492652500,8.405652587890625,2.0790998935699463,4.732500076293945,5.4207000732421875
1641191878502649300,8.4156494140625,-0.1800999939441681,4.225500106811523,4.6707000732421875
1641191878512649500,8.4256494140625,-1.4650999307632446,3.714599847793579,3.8631999492645264
1641191878522649300,8.4356494140625,-0.4818999767303467,3.5356998443603516,3.2207999229431152
1641191878532649500,8.4456494140625,1.3940999507904053,3.539599895477295,2.862499952316284
1641191878542651000,8.45565087890625,2.910099983215332,3.7127997875213623,2.5481998920440674
1641191878552649500,8.4656494140625,3.938199996948242,3.9103000164031982,2.241999864578247
1641191878562649300,8.4756494140625,4.224999904632568,4.013999938964844,1.9407999515533447
1641191878572649500,8.4856494140625,3.9390997886657715,3.967099905014038,1.653999924659729
1641191878582649300,8.4956494140625,3.3835999965667725,3.7704999446868896,1.5173999071121216
1641191878592654000,8.505654052734375,2.9198999404907227,3.363999843597412,1.5877999067306519
1641191878602649300,8.5156494140625,2.444000005722046,2.748699903488159,1.774399995803833
1641191878612683800,8.525683837890625,1.6258000135421753,2.1501998901367188,1.7826999425888062
1641191878622649300,8.5356494140625,0.11099999397993088,1.7105998992919922,1.3359999656677246
1641191878632652500,8.545652587890626,-2.221400022506714,1.1728999614715576,0.7263000011444092
1641191878642660400,8.555660400390625,-5.480599880218506,0.4989999830722809,-0.09829999506473541
1641191878652649500,8.5656494140625,-9.249499320983887,-0.7723000049591064,-1.2940999269485474
1641191878662649300,8.5756494140625,-11.132299423217773,-2.6821999549865723,-1.765899896621704
1641191878672649500,8.5856494140625,-16.46380043029785,-5.357999801635742,-2.717099905014038
1641191878682649300,8.5956494140625,-20.97279930114746,-8.196999549865723,-4.571700096130371
1641191878692661800,8.605661865234374,-14.59369945526123,-6.957299709320068,-3.7592999935150146
1641191878702649300,8.6156494140625,-9.321999549865723,-3.9423999786376953,-3.363999843597412
1641191878712649500,8.6256494140625,-6.172499656677246,-0.9492999911308289,-3.129199981689453
1641191878722647800,8.635647705078124,-1.9637999534606934,0.38099998235702515,-0.6854000091552734
1641191878732648000,8.64564794921875,2.3317999839782715,-0.03929999843239784,2.369799852371216
1641191878742651000,8.65565087890625,7.648299694061279,-0.8185999989509583,3.910599946975708
1641191878752648000,8.66564794921875,10.492599487304688,-2.1113998889923096,3.588899850845337
1641191878762647800,8.675647705078125,9.47760009765625,-3.9656999111175537,3.147199869155884
1641191878772648000,8.68564794921875,7.399099826812744,-5.281099796295166,2.7744998931884766
1641191878782647800,8.695647705078125,5.4375,-5.579899787902832,2.870800018310547
1641191878792657200,8.7056572265625,3.1564998626708984,-4.410200119018555,3.534099817276001
1641191878802647800,8.715647705078124,1.486299991607666,-2.518899917602539,4.324399948120117
1641191878812649500,8.7256494140625,0.7143999934196472,-1.046299934387207,4.691999912261963
1641191878822649300,8.7356494140625,1.6125999689102173,-0.8578999638557434,4.3125996589660645
1641191878832651000,8.745651123046875,3.0638999938964844,-1.5209999084472656,4.1072998046875
1641191878842660400,8.755660400390624,3.806999921798706,-2.335700035095215,3.860599994659424
1641191878852649500,8.7656494140625,4.318699836730957,-3.191499948501587,3.2265000343322754
1641191878862649300,8.7756494140625,4.405600070953369,-3.6352999210357666,2.421799898147583
1641191878872649500,8.7856494140625,4.3526997566223145,-3.677500009536743,1.622999906539917
1641191878882649300,8.7956494140625,4.249199867248535,-3.2779998779296875,0.8463999629020691
1641191878892652500,8.805652587890625,3.863499879837036,-2.4069998264312744,0.13599999248981476
1641191878902649300,8.8156494140625,3.225299835205078,-1.2495999336242676,-0.3343999981880188
1641191878912649500,8.8256494140625,2.61080002784729,0.007400000002235174,-0.7839999794960022
1641191878922649300,8.8356494140625,2.2060999870300293,1.0497000217437744,-1.1971999406814575
1641191878932649500,8.8456494140625,2.0536999702453613,1.8966999053955078,-1.455299973487854
1641191878942657300,8.8556572265625,1.9982999563217163,2.577899932861328,-1.5389000177383423
1641191878952649500,8.8656494140625,1.8828999996185303,3.0551998615264893,-1.605299949645996
1641191878962649300,8.8756494140625,1.7949999570846558,3.374199867248535,-1.5577999353408813
1641191878972649500,8.8856494140625,1.6967999935150146,3.704899787902832,-1.3887999057769775
1641191878982649300,8.8956494140625,1.608199954032898,4.016200065612793,-1.243399977684021
1641191878992649500,8.9056494140625,1.5602999925613403,4.2403998374938965,-1.2446999549865723
1641191879002649300,8.9156494140625,1.5809999704360962,4.294899940490723,-1.4089000225067139
1641191879012649500,8.9256494140625,1.6114000082015991,3.997499942779541,-1.5638999938964844
1641191879022649300,8.9356494140625,1.5611000061035156,3.4679999351501465,-1.4423999786376953
1641191879032651000,8.945651123046876,1.469499945640564,2.7874999046325684,-1.2465999126434326
1641191879042658800,8.955658935546875,1.345099925994873,2.274199962615967,-1.167099952697754
1641191879052649500,8.9656494140625,1.1833999156951904,1.9101999998092651,-1.0651999711990356
1641191879062649300,8.9756494140625,0.9253999590873718,1.782599925994873,-0.9297999739646912
1641191879072649500,8.9856494140625,0.6189000010490417,1.8422999382019043,-0.7001000046730042
1641191879082649300,8.9956494140625,0.20389999449253082,1.9812999963760376,-0.27879998087882996
1641191879092654000,9.005654052734375,-0.19259999692440033,2.053999900817871,0.08879999816417694
1641191879102649300,9.0156494140625,-0.4982999861240387,2.170599937438965,0.4152999818325043
1641191879112649500,9.0256494140625,-0.6845999956130981,2.249300003051758,0.510699987411499
1641191879122649300,9.0356494140625,-1.2906999588012695,2.0425000190734863,0.7716999650001526
1641191879132648000,9.04564794921875,-2.402899980545044,1.1567000150680542,1.049799919128418
1641191879142652400,9.05565234375,-3.609299898147583,-0.20409999787807465,1.2446999549865723
1641191879152648000,9.06564794921875,-4.588200092315674,-1.2081999778747559,1.3112999200820923
1641191879162647800,9.075647705078126,-5.382599830627441,-2.0678999423980713,1.124899983406067
1641191879172648000,9.08564794921875,-5.871099948883057,-2.843600034713745,1.0425000190734863
1641191879182647800,9.095647705078125,-6.320799827575684,-3.738499879837036,1.0298999547958374
1641191879192652500,9.105652587890624,-6.993599891662598,-4.368799686431885,0.6809999942779541
1641191879202647800,9.115647705078125,-7.130399703979492,-4.370899677276611,-0.006399999838322401
1641191879212648000,9.12564794921875,-6.138899803161621,-3.991499900817871,-0.7924999594688416
1641191879222647800,9.135647705078124,-4.710599899291992,-3.943499803543091,-1.2982999086380005
1641191879232649500,9.1456494140625,-4.037399768829346,-4.291199684143066,-2.0304999351501465
1641191879242655700,9.15565576171875,-3.879699945449829,-4.9151997566223145,-3.597599983215332
1641191879252649500,9.1656494140625,-3.724900007247925,-5.105899810791016,-5.21560001373291
1641191879262649300,9.1756494140625,-3.033799886703491,-4.2941999435424805,-5.901700019836426
1641191879272649500,9.1856494140625,-1.5030999183654785,-2.3345999717712402,-4.3364996910095215
1641191879282649300,9.1956494140625,-0.271699994802475,-0.7102000117301941,-2.7660000324249268
1641191879292657200,9.2056572265625,0.503600001335144,-0.15049999952316284,-2.0341999530792236
1641191879302649300,9.2156494140625,0.9740999937057495,-0.10539999604225159,-1.7511999607086182
1641191879312649500,9.2256494140625,1.3517999649047852,-0.6215999722480774,-1.4697999954223633
1641191879322649300,9.2356494140625,1.5798999071121216,-1.6669999361038208,-0.9484999775886536
1641191879332649500,9.2456494140625,1.6160999536514282,-2.8992998600006104,-0.14559999108314514
1641191879342662000,9.255661865234375,1.6342999935150146,-3.9863998889923096,0.6435999870300293
1641191879352649500,9.2656494140625,1.8114999532699585,-4.4741997718811035,1.3848999738693237
1641191879362649300,9.2756494140625,2.175999879837036,-4.5578999519348145,1.7776999473571777
1641191879372649500,9.2856494140625,2.5262999534606934,-4.070799827575684,2.069200038909912
1641191879382649300,9.2956494140625,2.97409987449646,-3.2973999977111816,2.15559983253479
1641191879392660200,9.30566015625,3.475099802017212,-2.32669997215271,2.1591999530792236
1641191879402649300,9.3156494140625,4.063600063323975,-1.2369999885559082,2.2102999687194824
1641191879412649500,9.3256494140625,4.345699787139893,-0.11549999564886093,2.215399980545044
1641191879422649300,9.3356494140625,4.2144999504089355,0.9409999847412109,2.3550000190734863
1641191879432649500,9.3456494140625,4.029099941253662,1.9365999698638916,2.6442999839782715
1641191879442654000,9.355654052734375,3.8509998321533203,2.7802999019622803,3.1181998252868652
1641191879452649500,9.3656494140625,3.5409998893737793,3.4749999046325684,3.531599998474121
1641191879462649300,9.3756494140625,3.1591999530792236,4.002599716186523,3.8023998737335205
1641191879472649500,9.3856494140625,2.7832000255584717,4.2530999183654785,4.0229997634887695
1641191879482649300,9.3956494140625,1.9677999019622803,4.307499885559082,4.089099884033203
1641191879492654000,9.405654052734375,-0.07109999656677246,3.898599863052368,3.676499843597412
1641191879502649300,9.4156494140625,-2.1171000003814697,3.1313998699188232,3.1963999271392822
1641191879512649500,9.4256494140625,-1.4967999458312988,2.9704999923706055,3.1039998531341553
1641191879522682000,9.43568212890625,0.3650999963283539,3.263199806213379,3.289099931716919
1641191879532649500,9.4456494140625,2.34879994392395,3.643399953842163,3.16759991645813
1641191879542655700,9.45565576171875,3.797499895095825,3.8200998306274414,2.6921000480651855
1641191879552649500,9.4656494140625,4.653500080108643,3.8808000087738037,2.2784998416900635
1641191879562647800,9.475647705078124,4.874300003051758,3.838599920272827,2.072200059890747
1641191879572649500,9.4856494140625,4.6468000411987305,3.7114999294281006,1.8757998943328857
1641191879582647800,9.495647705078126,4.0493998527526855,3.4870998859405518,1.7269999980926514
1641191879592652500,9.505652587890625,3.33270001411438,2.9266998767852783,1.8251999616622925
1641191879602647800,9.515647705078125,2.6327998638153076,2.225100040435791,2.024600028991699
1641191879612648000,9.52564794921875,1.8138999938964844,1.5777000188827515,2.1816999912261963
1641191879622647800,9.535647705078125,0.10509999841451645,1.1059999465942383,1.8385999202728271
1641191879632651000,9.545651123046875,-2.839900016784668,0.4935999810695648,1.1136999130249023
1641191879642658800,9.555658935546875,-5.808599948883057,-0.07999999821186066,0.05429999902844429
1641191879652649500,9.5656494140625,-7.698699951171875,-1.1330000162124634,-0.7111999988555908
1641191879662649300,9.5756494140625,-9.774099349975586,-2.986299991607666,-0.7899999618530273
1641191879672649500,9.5856494140625,-19.819398880004883,-5.876100063323975,-2.5379998683929443
1641191879682649300,9.5956494140625,-26.506898880004883,-8.657899856567383,-4.685100078582764
1641191879692660200,9.60566015625,-17.054399490356445,-6.799200057983398,-2.247799873352051
1641191879702649300,9.6156494140625,-10.205299377441406,-2.853600025177002,-1.607699990272522
1641191879712651000,9.625651123046875,-6.223700046539307,-0.008299999870359898,-1.3875999450683594
1641191879722649300,9.6356494140625,-0.44189998507499695,0.48159998655319214,1.3274999856948853
1641191879732649500,9.6456494140625,6.679299831390381,-0.3766999840736389,4.079999923706055
1641191879742662000,9.655661865234375,12.83859920501709,-1.789699912071228,4.268799781799316
1641191879752649500,9.6656494140625,13.671499252319336,-3.867499828338623,3.7515997886657715
1641191879762649300,9.6756494140625,11.03279972076416,-5.812699794769287,3.081199884414673
1641191879772649500,9.6856494140625,7.753699779510498,-6.402799606323242,2.171999931335449
1641191879782649300,9.6956494140625,5.099599838256836,-5.502699851989746,2.02620005607605
1641191879792660200,9.70566015625,3.34309983253479,-3.5169999599456787,3.243000030517578
1641191879802649300,9.7156494140625,2.498699903488159,-1.3828999996185303,4.092599868774414
1641191879812649500,9.7256494140625,2.1122000217437744,0.014699999243021011,4.073800086975098
1641191879822649300,9.7356494140625,1.923699975013733,0.43479999899864197,3.962899923324585
1641191879832649500,9.7456494140625,2.2474000453948975,0.00139999995008111,3.7328999042510986
1641191879842654000,9.755654052734375,2.7726998329162598,-0.7665999531745911,3.374799966812134
1641191879852649500,9.7656494140625,3.399899959564209,-1.5216999053955078,2.6057000160217285
1641191879862649300,9.7756494140625,4.108599662780762,-2.0852999687194824,1.6672999858856201
1641191879872649500,9.7856494140625,4.585299968719482,-2.261399984359741,0.7811999917030334
1641191879882649300,9.7956494140625,4.688899993896484,-1.9937999248504639,0.04959999769926071
1641191879892654000,9.805654052734376,4.481100082397461,-1.3538999557495117,-0.5906000137329102
1641191879902649300,9.8156494140625,3.9709999561309814,-0.6424999833106995,-0.9280999898910522
1641191879912649500,9.8256494140625,3.395699977874756,0.0916999951004982,-1.1973999738693237
1641191879922649300,9.8356494140625,2.8855998516082764,0.8291999697685242,-1.3298999071121216
1641191879932649500,9.8456494140625,2.5411999225616455,1.4615999460220337,-1.4334999322891235
1641191879942657300,9.8556572265625,2.2962000370025635,2.0000998973846436,-1.3787999153137207
1641191879952649500,9.8656494140625,2.0246999263763428,2.3625998497009277,-1.1927000284194946
1641191879962649300,9.8756494140625,1.8191999197006226,2.6166999340057373,-0.9239999651908875
1641191879972649500,9.8856494140625,1.5983999967575073,2.8344998359680176,-0.727899968624115
1641191879982647800,9.895647705078124,1.3564000129699707,3.1111998558044434,-0.5979999899864197
1641191879992655600,9.905655517578126,1.2029999494552612,3.2990000247955322,-0.5864999890327454
1641191880002647800,9.915647705078126,1.0598000288009644,3.3097000122070312,-0.5764999985694885
1641191880012648000,9.92564794921875,0.9629999995231628,3.125499963760376,-0.5500999689102173
1641191880022647800,9.935647705078125,0.8651999831199646,2.6856000423431396,-0.5572999715805054
1641191880032648000,9.94564794921875,0.7710999846458435,2.1828999519348145,-0.5834999680519104
1641191880042655700,9.95565576171875,0.6028000116348267,1.778899908065796,-0.49059998989105225
1641191880052648000,9.96564794921875,0.41009998321533203,1.6130999326705933,-0.27639999985694885
1641191880062647800,9.975647705078124,0.30329999327659607,1.7056999206542969,0.01269999984651804
1641191880072649500,9.9856494140625,0.2619999945163727,1.9739999771118164,0.2660999894142151
1641191880082649300,9.9956494140625,-0.1761000007390976,2.152899980545044,0.7741000056266785
1641191880092657200,10.0056572265625,-1.3371999263763428,2.001800060272217,1.1222000122070312
1641191880102649300,10.0156494140625,-2.849799871444702,1.6805999279022217,1.0663999319076538
1641191880112649500,10.0256494140625,-4.434799671173096,1.4510999917984009,0.861799955368042
1641191880122649300,10.0356494140625,-5.764999866485596,1.24399995803833,0.43289998173713684
1641191880132649500,10.0456494140625,-6.558300018310547,0.7953999638557434,0.23969998955726624
1641191880142655700,10.05565576171875,-6.258199691772461,-0.3869999945163727,0.4610999822616577
1641191880152649500,10.0656494140625,-5.632599830627441,-1.0303999185562134,0.7135999798774719
1641191880162649300,10.0756494140625,-4.85129976272583,-1.7706999778747559,0.8982999920845032
1641191880172649500,10.0856494140625,-4.023099899291992,-2.7853000164031982,1.0698999166488647
1641191880182649300,10.0956494140625,-3.3274998664855957,-3.820199966430664,1.049899935722351
1641191880192658700,10.10565869140625,-2.8213000297546387,-4.310299873352051,0.5273000001907349
1641191880202649300,10.1156494140625,-2.462100028991699,-4.052499771118164,-0.5710999965667725
1641191880212649500,10.1256494140625,-2.462899923324585,-3.828699827194214,-1.8593999147415161
1641191880222649300,10.1356494140625,-2.8518998622894287,-4.188299655914307,-3.155400037765503
1641191880232649500,10.1456494140625,-3.4355998039245605,-5.019999980926514,-4.970699787139893
1641191880242652400,10.15565234375,-3.6425998210906982,-5.467599868774414,-6.3516998291015625
1641191880252649500,10.1656494140625,-3.147199869155884,-4.8902997970581055,-5.9191999435424805
1641191880262649300,10.1756494140625,-1.9268999099731445,-3.1044998168945312,-3.3820998668670654
1641191880272649500,10.1856494140625,-0.7835999727249146,-1.4093999862670898,-1.7491999864578247
1641191880282649300,10.1956494140625,-0.018699999898672104,-0.3084000051021576,-1.3357999324798584
1641191880292655600,10.205655517578125,0.5004000067710876,0.04209999740123749,-1.4316999912261963
1641191880302649300,10.2156494140625,0.9384999871253967,-0.13910000026226044,-1.4627000093460083
1641191880312649500,10.2256494140625,1.3560999631881714,-0.745199978351593,-1.1553999185562134
1641191880322649300,10.2356494140625,1.5351999998092651,-1.6085000038146973,-0.4277999997138977
1641191880332651000,10.245651123046875,1.7273999452590942,-2.412600040435791,0.3693999946117401
1641191880342658800,10.255658935546874,1.917799949645996,-3.0179998874664307,1.1401000022888184
1641191880352649500,10.2656494140625,2.156399965286255,-3.317499876022339,1.593500018119812
1641191880362649300,10.2756494140625,2.4639999866485596,-3.2812998294830322,1.8666999340057373
1641191880372649500,10.2856494140625,2.748699903488159,-2.9587998390197754,2.1791000366210938
1641191880382649300,10.2956494140625,2.9766998291015625,-2.418799877166748,2.5051000118255615
1641191880392655600,10.305655517578124,3.36080002784729,-1.5930999517440796,2.672499895095825
1641191880402647800,10.315647705078124,3.7528998851776123,-0.6389999985694885,2.6375999450683594
1641191880412648000,10.32564794921875,4.052599906921387,0.39489999413490295,2.716599941253662
1641191880422647800,10.335647705078125,4.049099922180176,1.3449000120162964,2.8664000034332275
1641191880432649500,10.3456494140625,3.8553998470306396,2.263399839401245,3.100800037384033
1641191880442660400,10.355660400390626,3.600600004196167,2.809999942779541,3.3658998012542725
1641191880452648000,10.36564794921875,3.2239999771118164,3.1987998485565186,3.6414999961853027
1641191880462647800,10.375647705078125,2.462899923324585,3.2645998001098633,3.951900005340576
1641191880472648000,10.38564794921875,-1.1455999612808228,2.7101998329162598,3.605599880218506
1641191880482649300,10.3956494140625,-4.097899913787842,2.2075998783111572,3.0528998374938965
1641191880492654000,10.405654052734375,-2.328199863433838,2.4728000164031982,2.9804999828338623
1641191880502649300,10.4156494140625,0.383899986743927,3.052299976348877,2.960399866104126
1641191880512649500,10.4256494140625,2.6880998611450195,3.563199996948242,2.5920000076293945
1641191880522649300,10.4356494140625,4.082699775695801,3.9084999561309814,2.1861000061035156
1641191880532649500,10.4456494140625,4.826900005340576,4.05079984664917,1.8645999431610107
1641191880542662000,10.455661865234376,4.9116997718811035,4.00029993057251,1.4893999099731445
1641191880552649500,10.4656494140625,4.6128997802734375,3.8313000202178955,1.1713999509811401
1641191880562649300,10.4756494140625,3.9601998329162598,3.665299892425537,1.0460000038146973
1641191880572649500,10.4856494140625,3.316499948501587,3.4654998779296875,1.0317000150680542
1641191880582649300,10.4956494140625,2.9433999061584473,3.232800006866455,1.0938999652862549
1641191880592654000,10.505654052734375,2.5390000343322754,2.858799934387207,1.1916999816894531
1641191880602649300,10.5156494140625,1.9158999919891357,2.392699956893921,1.3313000202178955
1641191880612649500,10.5256494140625,0.10939999669790268,1.984299898147583,0.9771999716758728
1641191880622649300,10.5356494140625,-2.0162999629974365,1.4115999937057495,0.4958999752998352
1641191880632649500,10.5456494140625,-4.342299938201904,0.6481999754905701,-0.1622999906539917
1641191880642662000,10.555661865234375,-6.951699733734131,-0.15189999341964722,-1.0073999166488647
1641191880652649500,10.5656494140625,-8.688799858093262,-1.6547999382019043,-1.2798999547958374
1641191880662649300,10.5756494140625,-10.07450008392334,-3.5856997966766357,-1.0648000240325928
1641191880672649500,10.5856494140625,-19.030500411987305,-6.308799743652344,-2.6668999195098877
1641191880682649300,10.5956494140625,-17.870800018310547,-7.105199813842773,-3.1594998836517334
1641191880692660200,10.60566015625,-12.046499252319336,-5.1417999267578125,-2.6549999713897705
1641191880702649300,10.6156494140625,-7.622900009155273,-2.535799980163574,-2.0490000247955322
1641191880712649500,10.6256494140625,-3.974799871444702,-0.8079999685287476,-0.5275999903678894
1641191880722649300,10.6356494140625,0.35339999198913574,-0.3853999972343445,1.9167999029159546
1641191880732649500,10.6456494140625,5.671299934387207,-1.0115000009536743,3.3641998767852783
1641191880742658800,10.655658935546874,10.035799980163574,-2.073899984359741,3.3725998401641846
1641191880752649500,10.6656494140625,10.835399627685547,-3.809000015258789,3.0135998725891113
1641191880762649300,10.6756494140625,8.722700119018555,-5.150700092315674,2.567199945449829
1641191880772649500,10.6856494140625,6.249300003051758,-5.462500095367432,2.262199878692627
1641191880782649300,10.6956494140625,3.9891998767852783,-4.453000068664551,2.5154998302459717
1641191880792660200,10.70566015625,2.4045000076293945,-2.7490999698638916,3.2712998390197754
1641191880802649300,10.7156494140625,1.7872999906539917,-1.188099980354309,3.925999879837036
1641191880812648000,10.72564794921875,1.5312999486923218,-0.3158999979496002,4.07450008392334
1641191880822647800,10.735647705078126,1.7519999742507935,-0.19370000064373016,3.7105000019073486
1641191880832649500,10.7456494140625,2.3187999725341797,-0.534500002861023,3.4004998207092285
1641191880842655700,10.75565576171875,3.1033999919891357,-1.0082999467849731,2.744799852371216
1641191880852648000,10.76564794921875,3.759999990463257,-1.434999942779541,2.0548999309539795
1641191880862647800,10.775647705078125,4.190499782562256,-1.805299997329712,1.525399923324585
1641191880872648000,10.78564794921875,4.372799873352051,-1.8920999765396118,1.0032999515533447
1641191880882647800,10.795647705078125,4.080100059509277,-1.6901999711990356,0.552899956703186
1641191880892658700,10.80565869140625,3.616999864578247,-1.2513999938964844,0.05729999765753746
1641191880902649300,10.8156494140625,3.0515999794006348,-0.6532999873161316,-0.3100999891757965
1641191880912649500,10.8256494140625,2.5439000129699707,-0.121799997985363,-0.4967999756336212
1641191880922649300,10.8356494140625,2.1763999462127686,0.469899982213974,-0.6407999992370605
1641191880932649500,10.8456494140625,2.0032999515533447,1.0831999778747559,-0.8420000076293945
1641191880942654000,10.855654052734375,1.892199993133545,1.6856999397277832,-1.0025999546051025
1641191880952649500,10.8656494140625,1.7217999696731567,2.1236000061035156,-0.972599983215332
1641191880962649300,10.8756494140625,1.5887999534606934,2.483799934387207,-0.8238999843597412
1641191880972649500,10.8856494140625,1.5135999917984009,2.8934998512268066,-0.7560999989509583
1641191880982649300,10.8956494140625,1.448599934577942,3.2345998287200928,-0.8024999499320984
1641191880992654000,10.905654052734375,1.413599967956543,3.5576000213623047,-0.9554999470710754
1641191881002649300,10.9156494140625,1.49399995803833,3.68149995803833,-1.0845999717712402
1641191881012649500,10.9256494140625,1.5329999923706055,3.5426998138427734,-1.0134999752044678
1641191881022649300,10.9356494140625,1.4880999326705933,3.172799825668335,-0.7775999903678894
1641191881032649500,10.9456494140625,1.4607999324798584,2.6510000228881836,-0.4553999900817871
1641191881042652400,10.95565234375,1.3645999431610107,2.2890000343322754,-0.2386999875307083
1641191881052649500,10.9656494140625,1.1510999202728271,2.0550999641418457,-0.05159999802708626
1641191881062649300,10.9756494140625,0.7771999835968018,1.9961999654769897,0.06430000066757202
1641191881072649500,10.9856494140625,0.4342999756336212,2.0481998920440674,0.24210000038146973
1641191881082649300,10.9956494140625,0.3330000042915344,2.1691999435424805,0.5672999620437622
1641191881092658700,11.00565869140625,0.08309999853372574,2.378999948501587,0.9284999966621399
1641191881102649300,11.0156494140625,-0.5825999975204468,2.3241000175476074,1.2014999389648438
1641191881112649500,11.0256494140625,-1.7168999910354614,1.93559992313385,1.0806999206542969
1641191881122649300,11.0356494140625,-3.1920998096466064,1.3133000135421753,0.6793999671936035
1641191881132649500,11.0456494140625,-4.359600067138672,0.5985999703407288,0.43799999356269836
1641191881142654000,11.055654052734376,-5.1809000968933105,-0.25849997997283936,0.3520999848842621
1641191881152649500,11.0656494140625,-5.592400074005127,-1.0504000186920166,0.3944000005722046
1641191881162649300,11.0756494140625,-5.659800052642822,-1.8061000108718872,0.40699997544288635
1641191881172649500,11.0856494140625,-5.373499870300293,-2.6676998138427734,0.6804999709129333
1641191881182647800,11.095647705078125,-4.833499908447266,-3.5760998725891113,0.8985999822616577
1641191881192654000,11.105654052734375,-4.171599864959717,-4.094099998474121,0.6195999979972839
1641191881202647800,11.115647705078125,-3.557499885559082,-4.162099838256836,-0.13509999215602875
1641191881212648000,11.12564794921875,-3.2426998615264893,-4.191999912261963,-1.1627999544143677
1641191881222647800,11.135647705078124,-3.283099889755249,-4.53909969329834,-2.540299892425537
1641191881232649500,11.1456494140625,-3.626499891281128,-5.302299976348877,-4.299600124359131
1641191881242660400,11.155660400390625,-3.7360999584198,-6.013400077819824,-6.246799945831299
1641191881252648000,11.16564794921875,-3.248199939727783,-5.855999946594238,-6.416999816894531
1641191881262647800,11.175647705078125,-2.2142999172210693,-4.380199909210205,-4.317500114440918
1641191881272648000,11.18564794921875,-1.1855000257492065,-2.513200044631958,-2.3427000045776367
1641191881282647800,11.195647705078125,-0.5375999808311462,-1.1412999629974365,-1.5641999244689941
1641191881292651000,11.205651123046875,-0.06069999933242798,-0.5406000018119812,-1.440999984741211
1641191881302647800,11.215647705078124,0.322299987077713,-0.42289999127388,-1.3986999988555908
1641191881312648000,11.22564794921875,0.7763999700546265,-0.6276999711990356,-1.2906999588012695
1641191881322649300,11.2356494140625,1.139799952507019,-1.186900019645691,-0.8531999588012695
1641191881332649500,11.2456494140625,1.4190999269485474,-1.9305999279022217,-0.23639999330043793
1641191881342663400,11.255663330078125,1.5799999237060547,-2.505199909210205,0.5773999691009521
1641191881352649500,11.2656494140625,1.753499984741211,-2.8436999320983887,1.375
1641191881362649300,11.2756494140625,2.0244998931884766,-2.7971999645233154,1.872399926185608
1641191881372649500,11.2856494140625,2.2688000202178955,-2.416599988937378,2.1793999671936035
1641191881382649300,11.2956494140625,2.4106998443603516,-1.8391000032424927,2.4114999771118164
1641191881392655600,11.305655517578124,2.5699000358581543,-1.2120999097824097,2.715100049972534
1641191881402649300,11.3156494140625,2.8659000396728516,-0.5552999973297119,2.862799882888794
1641191881412649500,11.3256494140625,3.07889986038208,0.12119999527931213,3.015899896621704
1641191881422649300,11.3356494140625,3.2684998512268066,0.7491999864578247,3.231599807739258
1641191881432649500,11.3456494140625,3.333699941635132,1.4462000131607056,3.333400011062622
1641191881442660400,11.355660400390626,3.4201998710632324,2.15339994430542,3.7010998725891113
1641191881452649500,11.3656494140625,3.4701998233795166,2.8213000297546387,4.1026997566223145
1641191881462649300,11.3756494140625,3.3320999145507812,3.430799961090088,4.281799793243408
1641191881472649500,11.3856494140625,3.122999906539917,3.7458999156951904,4.464900016784668
1641191881482649300,11.3956494140625,1.294600009918213,3.5896999835968018,4.213900089263916
1641191881492651000,11.405651123046875,-4.039499759674072,2.7249999046325684,3.2017998695373535
1641191881502649300,11.4156494140625,-3.534799814224243,2.6658999919891357,3.0408999919891357
1641191881512649500,11.4256494140625,-0.5947999954223633,3.09089994430542,3.2228000164031982
1641191881522649300,11.4356494140625,2.027400016784668,3.614300012588501,3.193699836730957
1641191881532649500,11.4456494140625,3.833099842071533,3.9584999084472656,2.8294999599456787
1641191881542658800,11.455658935546875,4.8979997634887695,4.174099922180176,2.267400026321411
1641191881552649500,11.4656494140625,5.324899673461914,4.25469970703125,1.7807999849319458
1641191881562649300,11.4756494140625,5.144899845123291,4.179500102996826,1.2652000188827515
1641191881572649500,11.4856494140625,4.477099895477295,4.093199729919434,0.9353999495506287
1641191881582649300,11.4956494140625,3.5142998695373535,4.043799877166748,0.8172000050544739
1641191881592655600,11.505655517578125,2.797600030899048,3.8915998935699463,0.8816999793052673
1641191881602649300,11.5156494140625,2.483299970626831,3.519199848175049,1.2705999612808228
1641191881612649500,11.5256494140625,2.188199996948242,2.8093998432159424,1.5740000009536743
1641191881622649300,11.5356494140625,1.0260999202728271,2.072499990463257,1.3037999868392944
1641191881632649500,11.5456494140625,-0.5378000140190125,1.3393999338150024,0.6882999539375305
1641191881642655700,11.55565576171875,-4.049799919128418,0.4854999780654907,-0.3723999857902527
1641191881652649500,11.5656494140625,-8.792799949645996,-0.8800999522209167,-1.3032000064849854
1641191881662647800,11.575647705078126,-10.733399391174316,-2.9601998329162598,-0.8657000064849854
1641191881672648000,11.58564794921875,-10.457200050354004,-5.125199794769287,0.4245999753475189
1641191881682647800,11.595647705078125,-15.717299461364746,-6.936899662017822,0.14669999480247498
1641191881692652500,11.605652587890624,-17.810998916625977,-7.070899963378906,-1.5277999639511108
1641191881702647800,11.615647705078125,-12.71869945526123,-4.991600036621094,-1.538100004196167
1641191881712648000,11.62564794921875,-8.434100151062012,-2.5999999046325684,-1.295699954032898
1641191881722647800,11.635647705078124,-4.12939977645874,-0.9993999600410461,-0.5130999684333801
1641191881732648000,11.64564794921875,-1.7845999002456665,-0.748699963092804,0.944599986076355
1641191881742657300,11.6556572265625,3.6998000144958496,-1.3112999200820923,3.3213999271392822
1641191881752649500,11.6656494140625,10.209400177001953,-2.022599935531616,4.028599739074707
1641191881762649300,11.6756494140625,12.422100067138672,-3.2617998123168945,3.7461998462677
1641191881772649500,11.6856494140625,10.452400207519531,-4.5488996505737305,3.34060001373291
1641191881782649300,11.6956494140625,7.383299827575684,-4.874399662017822,3.0687999725341797
1641191881792654000,11.705654052734374,4.549900054931641,-4.086400032043457,3.047299861907959
1641191881802649300,11.7156494140625,1.6094999313354492,-2.30079984664917,3.558799982070923
1641191881812649500,11.7256494140625,-2.2398998737335205,-0.7245000004768372,4.3933000564575195
1641191881822649300,11.7356494140625,-3.0416998863220215,0.1256999969482422,4.2617998123168945
1641191881832649500,11.7456494140625,1.718999981880188,-0.32199999690055847,3.2934999465942383
1641191881842652400,11.75565234375,4.0406999588012695,-1.3657000064849854,3.2000999450683594
1641191881852649500,11.7656494140625,4.7683000564575195,-2.341599941253662,2.80679988861084
1641191881862649300,11.7756494140625,5.076900005340576,-3.1873998641967773,2.2189998626708984
1641191881872649500,11.7856494140625,4.910399913787842,-3.61929988861084,1.4922000169754028
1641191881882649300,11.7956494140625,4.48859977722168,-3.4801998138427734,0.6304000020027161
1641191881892652500,11.805652587890625,3.852599859237671,-2.6917998790740967,-0.29580000042915344
1641191881902649300,11.8156494140625,3.084199905395508,-1.7350000143051147,-0.7063999772071838
1641191881912649500,11.8256494140625,2.38349986076355,-0.6777999997138977,-1.039199948310852
1641191881922649300,11.8356494140625,1.871999979019165,0.2985000014305115,-1.2692999839782715
1641191881932649500,11.8456494140625,1.6735999584197998,1.0995999574661255,-1.4298999309539795
1641191881942655700,11.85565576171875,1.4881999492645264,1.8321999311447144,-1.4460999965667725
1641191881952649500,11.8656494140625,1.3349000215530396,2.388399839401245,-1.3693000078201294
1641191881962649300,11.8756494140625,1.1546000242233276,2.7486000061035156,-1.2117999792099
1641191881972649500,11.8856494140625,0.9470999836921692,3.0220999717712402,-1.0375999212265015
1641191881982649300,11.8956494140625,0.722599983215332,3.3708999156951904,-0.9829999804496765
1641191881992657200,11.9056572265625,0.6886999607086182,3.632200002670288,-1.0748000144958496
1641191882002649300,11.9156494140625,0.7369999885559082,3.9419000148773193,-1.2346999645233154
1641191882012649500,11.9256494140625,0.8271999955177307,4.07450008392334,-1.344599962234497
1641191882022649300,11.9356494140625,0.8894999623298645,3.963099956512451,-1.4336999654769897
1641191882032649500,11.9456494140625,1.0052000284194946,3.506500005722046,-1.3736000061035156
1641191882042658800,11.955658935546875,1.0852999687194824,2.7762999534606934,-1.2030999660491943
1641191882052649500,11.9656494140625,1.0017999410629272,2.1141998767852783,-0.9827999472618103
1641191882062649300,11.9756494140625,0.9706999659538269,1.6404999494552612,-0.8287000060081482
1641191882072649500,11.9856494140625,0.9089999794960022,1.3740999698638916,-0.7003999948501587
1641191882082647800,11.995647705078126,0.9088000059127808,1.3743000030517578,-0.349700003862381
1641191882092658700,12.00565869140625,0.8592999577522278,1.6150000095367432,0.15150000154972076
1641191882102647800,12.015647705078125,0.38909998536109924,1.7347999811172485,0.654699981212616
1641191882112648000,12.02564794921875,-0.5773999691009521,1.5931999683380127,1.0516999959945679
1641191882122647800,12.035647705078125,-1.8066999912261963,1.2523000240325928,1.1934999227523804
1641191882132648000,12.04564794921875,-3.0899999141693115,0.8464999794960022,1.0769000053405762
1641191882142657300,12.0556572265625,-4.146699905395508,0.5906000137329102,0.8197999596595764
1641191882152648000,12.06564794921875,-4.925999641418457,0.29839998483657837,0.6263999938964844
1641191882162663400,12.075663330078125,-5.275700092315674,-0.24009999632835388,0.7057999968528748
1641191882172649500,12.0856494140625,-5.2230000495910645,-1.2276999950408936,0.7476999759674072
1641191882182649300,12.0956494140625,-5.151299953460693,-1.8238999843597412,0.7249000072479248
1641191882192652500,12.105652587890624,-5.020199775695801,-2.517699956893921,0.5425999760627747
1641191882202649300,12.1156494140625,-4.858799934387207,-3.2117998600006104,0.24889999628067017
1641191882212649500,12.1256494140625,-4.591899871826172,-3.711699962615967,-0.2076999992132187
1641191882222649300,12.1356494140625,-4.232699871063232,-3.9370999336242676,-0.8960999846458435
1641191882232649500,12.1456494140625,-3.989300012588501,-4.254899978637695,-1.6603999137878418
1641191882242658800,12.155658935546874,-3.923499822616577,-4.955599784851074,-2.850100040435791
1641191882252649500,12.1656494140625,-3.9426000118255615,-5.859399795532227,-4.396500110626221
1641191882262649300,12.1756494140625,-3.687999963760376,-6.24970006942749,-5.533199787139893
1641191882272649500,12.1856494140625,-2.5394999980926514,-4.998199939727783,-4.692699909210205
1641191882282649300,12.1956494140625,-1.3055999279022217,-2.9453999996185303,-3.0630998611450195
1641191882292652500,12.205652587890626,-0.13920000195503235,-1.0422999858856201,-1.8645999431610107
1641191882302649300,12.2156494140625,0.5156999826431274,-0.1744999885559082,-1.3289999961853027
1641191882312649500,12.2256494140625,0.9301999807357788,0.0803999975323677,-1.1693999767303467
1641191882322649300,12.2356494140625,1.257200002670288,-0.12839999794960022,-0.9752999544143677
1641191882332649500,12.2456494140625,1.7064999341964722,-0.7831000089645386,-0.6128000020980835
1641191882342658800,12.255658935546874,1.9271999597549438,-1.7448999881744385,-0.10480000078678131
1641191882352649500,12.2656494140625,2.1036999225616455,-2.9047000408172607,0.6365999579429626
1641191882362649300,12.2756494140625,2.2918999195098877,-3.694899797439575,1.4779999256134033
1641191882372649500,12.2856494140625,2.4868998527526855,-3.9731998443603516,2.224900007247925
1641191882382649300,12.2956494140625,2.6584999561309814,-3.581899881362915,2.6875998973846436
1641191882392652500,12.305652587890625,2.6803998947143555,-2.776399850845337,2.9357998371124268
1641191882402649300,12.3156494140625,2.848299980163574,-1.764299988746643,2.931299924850464
1641191882412649500,12.3256494140625,2.860100030899048,-0.7505999803543091,2.9768998622894287
1641191882422649300,12.3356494140625,2.8880999088287354,0.10779999941587448,3.2423999309539795
1641191882432649500,12.3456494140625,2.7825000286102295,0.9044999480247498,3.389400005340576
1641191882442657300,12.3556572265625,2.5952999591827393,1.741499900817871,3.6191999912261963
1641191882452649500,12.3656494140625,2.3777999877929688,2.537899971008301,3.997499942779541
1641191882462649300,12.3756494140625,1.5453999042510986,3.067199945449829,4.6031999588012695
1641191882472649500,12.3856494140625,-5.423799991607666,2.359099864959717,5.5177998542785645
1641191882482649300,12.3956494140625,-5.605899810791016,2.424299955368042,3.7448999881744385
1641191882492658700,12.40565869140625,-1.7596999406814575,3.3648998737335205,3.0353000164031982
1641191882502647800,12.415647705078126,1.6584999561309814,4.075799942016602,3.3234000205993652
1641191882512648000,12.42564794921875,4.167999744415283,4.34630012512207,3.4814999103546143
1641191882522647800,12.435647705078125,5.813199996948242,4.3531999588012695,3.118299961090088
1641191882532648000,12.44564794921875,6.599999904632568,4.189499855041504,2.622299909591675
1641191882542652400,12.45565234375,6.337100028991699,3.9485998153686523,1.993399977684021
1641191882552648000,12.46564794921875,5.4191999435424805,3.661099910736084,1.3848999738693237
1641191882562647800,12.475647705078124,4.277899742126465,3.334699869155884,0.8029999732971191
1641191882572648000,12.48564794921875,3.479599952697754,3.249199867248535,0.616599977016449
1641191882582649300,12.4956494140625,3.1029000282287598,3.3065998554229736,0.8678999543190002
1641191882592657200,12.5056572265625,2.912299871444702,3.435699939727783,0.9943999648094177
1641191882602649300,12.5156494140625,2.8162999153137207,3.3726999759674072,1.1568999290466309
1641191882612649500,12.5256494140625,2.5348000526428223,3.090099811553955,1.271899938583374
1641191882622649300,12.5356494140625,1.763700008392334,2.537600040435791,1.3212999105453491
1641191882632651000,12.545651123046875,-0.5615000128746033,1.979699969291687,0.7603999972343445
1641191882642658800,12.555658935546875,-4.914000034332275,1.2965999841690063,-0.5756999850273132
1641191882652649500,12.5656494140625,-9.549399375915527,0.004999999888241291,-1.640299916267395
1641191882662649300,12.5756494140625,-10.82289981842041,-2.487799882888794,-0.6414999961853027
1641191882672649500,12.5856494140625,-12.723199844360352,-4.95829963684082,0.32679998874664307
1641191882682649300,12.5956494140625,-20.406299591064453,-6.892499923706055,-1.0662999153137207
1641191882692655600,12.605655517578125,-17.976699829101562,-6.383999824523926,-2.1145999431610107
1641191882702649300,12.6156494140625,-12.097199440002441,-3.8770999908447266,-2.349400043487549
1641191882712649500,12.6256494140625,-6.453099727630615,-1.0723999738693237,-2.006899833679199
1641191882722649300,12.6356494140625,-1.423799991607666,0.2214999943971634,-0.85999995470047
1641191882732649500,12.6456494140625,1.4764999151229858,-0.6758999824523926,0.6291999816894531
1641191882742658800,12.655658935546874,6.058399677276611,-2.3724000453948975,2.549799919128418
1641191882752649500,12.6656494140625,10.914499282836914,-3.7214999198913574,3.9607999324798584
1641191882762649300,12.6756494140625,11.573299407958984,-4.994999885559082,3.975299835205078
1641191882772649500,12.6856494140625,9.093599319458008,-6.0000996589660645,3.7771999835968018
1641191882782649300,12.6956494140625,6.239199638366699,-5.78939962387085,3.6157000064849854
1641191882792651000,12.705651123046875,4.019700050354004,-4.375400066375732,4.019700050354004
1641191882802649300,12.7156494140625,1.9266999959945679,-2.082900047302246,4.283400058746338
1641191882812649500,12.7256494140625,-2.1875,-0.18219999969005585,4.759200096130371
1641191882822649300,12.7356494140625,-3.418599843978882,0.6953999996185303,4.420799732208252
1641191882832651000,12.745651123046875,2.7426998615264893,0.14010000228881836,3.170499801635742
1641191882842658800,12.755658935546874,5.075500011444092,-1.0412999391555786,2.8170998096466064
1641191882852649500,12.7656494140625,5.705199718475342,-2.26639986038208,2.2654998302459717
