time,seconds_elapsed,z,y,x
1641191870122649300,0.0356494140625,9.109299659729004,3.2660999298095703,-1.5880999565124512
1641191870132652500,0.045652587890625,9.108699798583984,3.267199993133545,-1.5891000032424927
1641191870142649300,0.0556494140625,9.1072998046875,3.2697999477386475,-1.5920000076293945
1641191870152649500,0.0656494140625,9.105299949645996,3.273099899291992,-1.5965999364852905
1641191870162649300,0.0756494140625,9.102299690246582,3.2777998447418213,-1.6038999557495117
1641191870172649500,0.0856494140625,9.097700119018555,3.283900022506714,-1.6173999309539795
1641191870182658800,0.095658935546875,9.089799880981445,3.293099880218506,-1.64329993724823
1641191870192649500,0.1056494140625,9.07409954071045,3.3070998191833496,-1.7009999752044678
1641191870202649300,0.1156494140625,9.031899452209473,3.324399948120117,-1.882099986076355
1641191870212649500,0.1256494140625,9.019599914550781,3.3065998554229736,-1.970099925994873
1641191870222649300,0.1356494140625,9.023699760437012,3.282599925994873,-1.991499900817871
1641191870232654000,0.145654052734375,9.031299591064453,3.2585999965667725,-1.9966999292373657
1641191870242649300,0.1556494140625,9.040299415588379,3.234499931335449,-1.9948999881744385
1641191870252649500,0.1656494140625,9.05049991607666,3.2102999687194824,-1.9878000020980835
1641191870262649300,0.1756494140625,9.0625,3.1828999519348145,-1.9773999452590942
1641191870272649500,0.1856494140625,9.07409954071045,3.1582999229431152,-1.9631999731063843
1641191870282660400,0.195660400390625,9.098499298095703,3.1243999004364014,-1.903899908065796
1641191870292648000,0.20564794921875,9.097000122070312,3.114300012588501,-1.9271999597549438
1641191870302647800,0.215647705078125,9.094599723815918,3.104300022125244,-1.9544999599456787
1641191870312649500,0.2256494140625,9.091899871826172,3.098599910736084,-1.9763000011444092
1641191870322647800,0.235647705078125,9.08799934387207,3.0994999408721924,-1.9924999475479126
1641191870332648000,0.24564794921875,9.081899642944336,3.1061999797821045,-2.009999990463257
1641191870342647800,0.255647705078125,9.072799682617188,3.1222000122070312,-2.026399850845337
1641191870352648000,0.26564794921875,9.058199882507324,3.15339994430542,-2.0432000160217285
1641191870362647800,0.275647705078125,9.04580020904541,3.1791999340057373,-2.058199882507324
1641191870372648000,0.28564794921875,9.038199424743652,3.1898000240325928,-2.0748000144958496
1641191870382647800,0.295647705078125,9.027899742126465,3.2056000232696533,-2.0952000617980957
1641191870392652500,0.305652587890625,9.016599655151367,3.2197999954223633,-2.1218998432159424
1641191870402647800,0.315647705078125,9.0068998336792,3.2346999645233154,-2.140199899673462
1641191870412648000,0.32564794921875,8.997900009155273,3.2446999549865723,-2.162899971008301
1641191870422647800,0.335647705078125,8.991199493408203,3.2507998943328857,-2.1816999912261963
1641191870432648000,0.34564794921875,8.987299919128418,3.2512998580932617,-2.196899890899658
1641191870442652400,0.35565234375,8.985099792480469,3.250499963760376,-2.2072999477386475
1641191870452649500,0.3656494140625,8.986800193786621,3.2372000217437744,-2.219899892807007
1641191870462649300,0.3756494140625,8.986899375915527,3.2314999103546143,-2.227599859237671
1641191870472649500,0.3856494140625,8.988399505615234,3.221799850463867,-2.235599994659424
1641191870482649300,0.3956494140625,8.990900039672852,3.2092998027801514,-2.2431998252868652
1641191870492655600,0.405655517578125,8.99269962310791,3.201200008392334,-2.2479000091552734
1641191870502649300,0.4156494140625,8.994599342346191,3.1952998638153076,-2.248699903488159
1641191870512649500,0.4256494140625,9,3.1826000213623047,-2.2451000213623047
1641191870522649300,0.4356494140625,9.006799697875977,3.1673998832702637,-2.2390999794006348
1641191870532649500,0.4456494140625,9.0177001953125,3.14520001411438,-2.2263998985290527
1641191870542658800,0.455658935546875,9.024199485778809,3.1345999240875244,-2.2149999141693115
1641191870552649500,0.4656494140625,9.036999702453613,3.1194000244140625,-2.1843998432159424
1641191870562649300,0.4756494140625,9.042699813842773,3.1190998554229736,-2.1610000133514404
1641191870572649500,0.4856494140625,9.050700187683105,3.121500015258789,-2.123499870300293
1641191870582649300,0.4956494140625,9.05459976196289,3.1305999755859375,-2.0932998657226562
1641191870592658700,0.50565869140625,9.062399864196777,3.1375999450683594,-2.0488998889923096
1641191870602649300,0.5156494140625,9.06719970703125,3.145900011062622,-2.014400005340576
1641191870612649500,0.5256494140625,9.07699966430664,3.148099899291992,-1.966499924659729
1641191870622649300,0.5356494140625,9.09469985961914,3.1335999965667725,-1.9067999124526978
1641191870632649500,0.5456494140625,9.10949993133545,3.1222000122070312,-1.854099988937378
1641191870642660400,0.555660400390625,9.128199577331543,3.1051998138427734,-1.789599895477295
1641191870652649500,0.5656494140625,9.144899368286133,3.089900016784668,-1.7299000024795532
1641191870662649300,0.5756494140625,9.159500122070312,3.075500011444092,-1.6771999597549438
1641191870672649500,0.5856494140625,9.175999641418457,3.052799940109253,-1.6279000043869019
1641191870682649300,0.5956494140625,9.18529987335205,3.0398998260498047,-1.5994999408721924
1641191870692658700,0.60565869140625,9.199699401855469,3.010999917984009,-1.5713999271392822
1641191870702655700,0.61565576171875,9.217000007629395,2.9707999229431152,-1.546199917793274
1641191870712649500,0.6256494140625,9.243199348449707,2.904599905014038,-1.5153999328613281
1641191870722649300,0.6356494140625,9.261799812316895,2.8548998832702637,-1.4958999156951904
1641191870732649500,0.6456494140625,9.286999702453613,2.76639986038208,-1.5058999061584473
1641191870742652400,0.65565234375,9.299399375915527,2.6965999603271484,-1.5548999309539795
1641191870752651000,0.665651123046875,9.303099632263184,2.664099931716919,-1.5889999866485596
1641191870762647800,0.675647705078125,9.298600196838379,2.6511998176574707,-1.636099934577942
1641191870772648000,0.68564794921875,9.28749942779541,2.6512999534606934,-1.6976999044418335
1641191870782647800,0.695647705078125,9.28439998626709,2.645900011062622,-1.7226999998092651
1641191870792654000,0.705654052734375,9.2923002243042,2.6023998260498047,-1.7465999126434326
1641191870802647800,0.715647705078125,9.304699897766113,2.5576999187469482,-1.7465999126434326
1641191870812648000,0.72564794921875,9.330299377441406,2.46589994430542,-1.7418999671936035
1641191870822647800,0.735647705078125,9.357500076293945,2.3564999103546143,-1.747399926185608
1641191870832648000,0.74564794921875,9.376899719238281,2.247299909591675,-1.7865999937057495
1641191870842655700,0.75565576171875,9.381199836730957,2.159299850463867,-1.8704999685287476
1641191870852648000,0.76564794921875,9.36199951171875,2.1052000522613525,-2.02239990234375
1641191870862649300,0.7756494140625,9.33449935913086,2.105299949645996,-2.145699977874756
1641191870872649500,0.7856494140625,9.265600204467773,2.151700019836426,-2.384999990463257
1641191870882649300,0.7956494140625,9.20829963684082,2.190700054168701,-2.564499855041504
1641191870892660200,0.80566015625,9.126699447631836,2.2416000366210938,-2.801499843597412
1641191870902649300,0.8156494140625,9.042200088500977,2.275899887084961,-3.0376999378204346
1641191870912649500,0.8256494140625,8.939199447631836,2.291800022125244,-3.317699909210205
1641191870922649300,0.8356494140625,8.852700233459473,2.276700019836426,-3.5516998767852783
1641191870932649500,0.8456494140625,8.763500213623047,2.2421000003814697,-3.787299871444702
1641191870942655700,0.85565576171875,8.69159984588623,2.1986000537872314,-3.9738998413085938
1641191870952649500,0.8656494140625,8.597800254821777,2.134999990463257,-4.205699920654297
1641191870962649300,0.8756494140625,8.503000259399414,2.0586998462677,-4.430500030517578
1641191870972649500,0.8856494140625,8.382699966430664,1.9584999084472656,-4.697199821472168
1641191870982649300,0.8956494140625,8.300399780273438,1.8809999227523804,-4.871699810028076
1641191870992651000,0.905651123046875,8.13949966430664,1.7558000087738037,-5.180200099945068
1641191871002649300,0.9156494140625,8.048299789428711,1.671199917793274,-5.347899913787842
1641191871012649500,0.9256494140625,7.920599937438965,1.5645999908447266,-5.566499710083008
1641191871022649300,0.9356494140625,7.8177995681762695,1.4709999561309814,-5.734699726104736
1641191871032649500,0.9456494140625,7.707899570465088,1.347499966621399,-5.911099910736084
1641191871042652400,0.95565234375,7.607399940490723,1.1723999977111816,-6.076399803161621
1641191871052649500,0.9656494140625,7.537499904632568,0.9890999794006348,-6.194900035858154
1641191871062649300,0.9756494140625,7.487399578094482,0.8156999945640564,-6.280299663543701
1641191871072649500,0.9856494140625,7.40939998626709,0.5399999618530273,-6.401399612426758
1641191871082649300,0.9956494140625,7.359799861907959,0.33739998936653137,-6.4721999168396
1641191871092661800,1.005661865234375,7.2789998054504395,0.03669999912381172,-6.571499824523926
1641191871102649300,1.0156494140625,7.211699962615967,-0.21449999511241913,-6.6417999267578125
1641191871112649500,1.0256494140625,7.13539981842041,-0.45489999651908875,-6.711799621582031
1641191871122649300,1.0356494140625,7.065399646759033,-0.6385999917984009,-6.770599842071533
1641191871132654000,1.045654052734375,6.963899612426758,-0.8455999493598938,-6.852599620819092
1641191871142655700,1.05565576171875,6.859599590301514,-1.0384999513626099,-6.930799961090088
1641191871152648000,1.06564794921875,6.763899803161621,-1.2238999605178833,-6.99429988861084
1641191871162649300,1.0756494140625,6.6651997566223145,-1.440500020980835,-7.047599792480469
1641191871172649500,1.0856494140625,6.60129976272583,-1.622499942779541,-7.0680999755859375
1641191871182649300,1.0956494140625,6.562099933624268,-1.768899917602539,-7.069599628448486
1641191871192654000,1.105654052734375,6.501999855041504,-1.992799997329712,-7.065499782562256
1641191871202649300,1.1156494140625,6.457499980926514,-2.1505000591278076,-7.059999942779541
1641191871212648000,1.12564794921875,6.403199672698975,-2.295599937438965,-7.063899993896484
1641191871222647800,1.135647705078125,6.279699802398682,-2.517400026321411,-7.099099636077881
1641191871232648000,1.14564794921875,6.129799842834473,-2.7296998500823975,-7.151399612426758
1641191871242655700,1.15565576171875,6.0192999839782715,-2.870299816131592,-7.190099716186523
1641191871252648000,1.16564794921875,5.84660005569458,-3.062700033187866,-7.252999782562256
1641191871262647800,1.175647705078125,5.672199726104736,-3.2453999519348145,-7.311800003051758
1641191871272648000,1.18564794921875,5.46999979019165,-3.447700023651123,-7.372999668121338
1641191871282649300,1.1956494140625,5.307799816131592,-3.6076998710632324,-7.414899826049805
1641191871292652500,1.205652587890625,5.154599666595459,-3.7634999752044678,-7.445399761199951
1641191871302649300,1.2156494140625,5.046499729156494,-3.888899803161621,-7.455099582672119
1641191871312649500,1.2256494140625,4.938899993896484,-4.046000003814697,-7.44350004196167
1641191871322649300,1.2356494140625,4.861599922180176,-4.202699661254883,-7.407399654388428
1641191871332649500,1.2456494140625,4.799599647521973,-4.362199783325195,-7.355499744415283
1641191871342657300,1.2556572265625,4.716700077056885,-4.56279993057251,-7.287099838256836
1641191871352649500,1.2656494140625,4.632699966430664,-4.737599849700928,-7.2291998863220215
1641191871362649300,1.2756494140625,4.558399677276611,-4.875199794769287,-7.184899806976318
1641191871372649500,1.2856494140625,4.4430999755859375,-5.061699867248535,-7.127899646759033
1641191871382649300,1.2956494140625,4.371200084686279,-5.163000106811523,-7.099599838256836
1641191871392658700,1.30565869140625,4.2606000900268555,-5.2957000732421875,-7.0690999031066895
1641191871402651000,1.31565087890625,4.218800067901611,-5.345699787139893,-7.05649995803833
1641191871412649500,1.3256494140625,4.189599990844727,-5.388899803161621,-7.040999889373779
1641191871422649300,1.3356494140625,4.181600093841553,-5.4151997566223145,-7.025599956512451
1641191871432649500,1.3456494140625,4.1774001121521,-5.447700023651123,-7.002899646759033
1641191871442654000,1.355654052734375,4.174200057983398,-5.491600036621094,-6.970399856567383
1641191871452649500,1.3656494140625,4.173799991607666,-5.52239990234375,-6.946300029754639
1641191871462649300,1.3756494140625,4.152400016784668,-5.565700054168701,-6.924499988555908
1641191871472649500,1.3856494140625,4.0980000495910645,-5.626100063323975,-6.90809965133667
1641191871482649300,1.3956494140625,4.042599678039551,-5.668399810791016,-6.906199932098389
1641191871492649500,1.4056494140625,3.951200008392334,-5.726799964904785,-6.910899639129639
1641191871502649300,1.4156494140625,3.836599826812744,-5.790999889373779,-6.921999931335449
1641191871512649500,1.4256494140625,3.684799909591675,-5.870800018310547,-6.937099933624268
1641191871522649300,1.4356494140625,3.5809998512268066,-5.936100006103516,-6.935999870300293
1641191871532649500,1.4456494140625,3.5023999214172363,-5.9923996925354,-6.927700042724609
1641191871542651000,1.45565087890625,3.434799909591675,-6.029699802398682,-6.929199695587158
1641191871552649500,1.4656494140625,3.3808999061584473,-6.043799877166748,-6.943399906158447
1641191871562649300,1.4756494140625,3.31499981880188,-6.054999828338623,-6.965399742126465
1641191871572649500,1.4856494140625,3.2581000328063965,-6.065399646759033,-6.983199596405029
1641191871582649300,1.4956494140625,3.210700035095215,-6.077199935913086,-6.994799613952637
1641191871592658700,1.50565869140625,3.1503000259399414,-6.095999717712402,-7.00600004196167
1641191871602649300,1.5156494140625,3.1087000370025635,-6.10129976272583,-7.019899845123291
1641191871612648000,1.52564794921875,2.992799997329712,-6.1219000816345215,-7.052299976348877
1641191871622649300,1.5356494140625,2.9076998233795166,-6.133299827575684,-7.077899932861328
1641191871632648000,1.54564794921875,2.7335000038146973,-6.161499977111816,-7.122699737548828
1641191871642654000,1.555654052734375,2.6125998497009277,-6.176799774169922,-7.154699802398682
1641191871652648000,1.56564794921875,2.440500020980835,-6.191699981689453,-7.202399730682373
1641191871662647800,1.575647705078125,2.338599920272827,-6.184599876403809,-7.242300033569336
1641191871672648000,1.58564794921875,2.237799882888794,-6.1545000076293945,-7.299599647521973
1641191871682647800,1.595647705078125,2.1643998622894287,-6.0971999168396,-7.3694000244140625
1641191871692651000,1.605651123046875,2.1126999855041504,-6.013199806213379,-7.452999591827393
1641191871702649300,1.6156494140625,2.0741000175476074,-5.908199787139893,-7.547199726104736
1641191871712649500,1.6256494140625,2.0277998447418213,-5.77269983291626,-7.663699626922607
1641191871722649300,1.6356494140625,1.976699948310852,-5.687399864196777,-7.740499973297119
1641191871732649500,1.6456494140625,1.882699966430664,-5.610699653625488,-7.819499969482422
1641191871742652400,1.65565234375,1.7673999071121216,-5.563299655914307,-7.87999963760376
1641191871752649500,1.6656494140625,1.6431999206542969,-5.526899814605713,-7.932299613952637
1641191871762649300,1.6756494140625,1.514299988746643,-5.485599994659424,-7.986499786376953
1641191871772649500,1.6856494140625,1.371899962425232,-5.42519998550415,-8.053199768066406
1641191871782649300,1.6956494140625,1.2685999870300293,-5.376499652862549,-8.102700233459473
1641191871792661800,1.705661865234375,1.1787999868392944,-5.323299884796143,-8.151199340820312
1641191871802649300,1.7156494140625,1.1359000205993652,-5.282700061798096,-8.183599472045898
1641191871812649500,1.7256494140625,1.097599983215332,-5.206899642944336,-8.237299919128418
1641191871822649300,1.7356494140625,1.052899956703186,-5.08459997177124,-8.319099426269531
1641191871832649500,1.7456494140625,1.0082999467849731,-4.990699768066406,-8.381199836730957
1641191871842657300,1.7556572265625,0.9339999556541443,-4.892399787902832,-8.447599411010742
1641191871852649500,1.7656494140625,0.8585000038146973,-4.8267998695373535,-8.493199348449707
1641191871862649300,1.7756494140625,0.770799994468689,-4.767099857330322,-8.535200119018555
1641191871872649500,1.7856494140625,0.6962999701499939,-4.727499961853027,-8.563599586486816
1641191871882649300,1.7956494140625,0.6394000053405762,-4.7083001136779785,-8.57859992980957
1641191871892661800,1.805661865234375,0.5843999981880188,-4.696300029754639,-8.589099884033203
1641191871902649300,1.8156494140625,0.5546999573707581,-4.683099746704102,-8.598199844360352
1641191871912649500,1.8256494140625,0.49789997935295105,-4.640500068664551,-8.624799728393555
1641191871922649300,1.8356494140625,0.446399986743927,-4.588599681854248,-8.65530014038086
1641191871932649500,1.8456494140625,0.3813999891281128,-4.492099761962891,-8.70889949798584
1641191871942654000,1.855654052734375,0.32349997758865356,-4.367599964141846,-8.774299621582031
1641191871952649500,1.8656494140625,0.27230000495910645,-4.236299991607666,-8.84019947052002
1641191871962649300,1.8756494140625,0.23119999468326569,-4.1178998947143555,-8.897099494934082
1641191871972649500,1.8856494140625,0.17019999027252197,-4.009699821472168,-8.947799682617188
1641191871982647800,1.895647705078125,0.11109999567270279,-3.9672999382019043,-8.967599868774414
1641191871992652500,1.905652587890625,0.020999999716877937,-3.957199811935425,-8.972700119018555
1641191872002647800,1.915647705078125,-0.07970000058412552,-3.982999801635742,-8.960899353027344
1641191872012648000,1.92564794921875,-0.22849999368190765,-4.051700115203857,-8.927499771118164
1641191872022649300,1.9356494140625,-0.2824999988079071,-4.085899829864502,-8.910399436950684
1641191872032648000,1.94564794921875,-0.37059998512268066,-4.149499893188477,-8.877699851989746
1641191872042654000,1.955654052734375,-0.40609997510910034,-4.179299831390381,-8.862099647521973
1641191872052648000,1.96564794921875,-0.4227999746799469,-4.196399688720703,-8.853300094604492
1641191872062647800,1.975647705078125,-0.4180999994277954,-4.195099830627441,-8.854100227355957
1641191872072648000,1.98564794921875,-0.4039999842643738,-4.179599761962891,-8.862099647521973
1641191872082647800,1.995647705078125,-0.3798999786376953,-4.14739990234375,-8.878299713134766
1641191872092652500,2.005652587890625,-0.34540000557899475,-4.107500076293945,-8.898200035095215
1641191872102647800,2.015647705078125,-0.29679998755455017,-4.0671000480651855,-8.918499946594238
1641191872112649500,2.0256494140625,-0.20069999992847443,-4.0142998695373535,-8.944999694824219
1641191872122649300,2.0356494140625,-0.0616999976336956,-3.9667999744415283,-8.968299865722656
1641191872132649500,2.0456494140625,0.15389999747276306,-3.922299861907959,-8.986700057983398
1641191872142649300,2.0556494140625,0.37599998712539673,-3.899399995803833,-8.990099906921387
1641191872152649500,2.0656494140625,0.6319000124931335,-3.8902997970581055,-8.979700088500977
1641191872162649300,2.0756494140625,0.8537999987602234,-3.8912999629974365,-8.960899353027344
1641191872172649500,2.0856494140625,1.125499963760376,-3.899099826812744,-8.927499771118164
1641191872182649300,2.0956494140625,1.3514000177383423,-3.9121999740600586,-8.890299797058105
1641191872192649500,2.1056494140625,1.517799973487854,-3.9265999794006348,-8.856999397277832
1641191872202649300,2.1156494140625,1.622399926185608,-3.9405999183654785,-8.832200050354004
1641191872212649500,2.1256494140625,1.6754999160766602,-3.9591000080108643,-8.814099311828613
1641191872222649300,2.1356494140625,1.664199948310852,-3.9807000160217285,-8.80639934539795
1641191872232649500,2.1456494140625,1.6333999633789062,-4.000699996948242,-8.803199768066406
1641191872242649300,2.1556494140625,1.605199933052063,-4.029200077056885,-8.795299530029297
1641191872252649500,2.1656494140625,1.586899995803833,-4.087800025939941,-8.771599769592285
1641191872262649300,2.1756494140625,1.6033999919891357,-4.135799884796143,-8.745999336242676
1641191872272649500,2.1856494140625,1.6825000047683716,-4.215199947357178,-8.693099975585938
1641191872282654000,2.195654052734375,1.7531999349594116,-4.252099990844727,-8.661099433898926
1641191872292649500,2.2056494140625,1.882599949836731,-4.291199684143066,-8.614500045776367
1641191872302649300,2.2156494140625,2.045799970626831,-4.313999652862549,-8.565799713134766
1641191872312649500,2.2256494140625,2.246299982070923,-4.320399761199951,-8.512199401855469
1641191872322649300,2.2356494140625,2.485100030899048,-4.311399936676025,-8.45009994506836
1641191872332652500,2.245652587890625,2.8004000186920166,-4.285999774932861,-8.363999366760254
1641191872342649300,2.2556494140625,3.0673999786376953,-4.256700038909912,-8.28499984741211
1641191872352649500,2.2656494140625,3.277599811553955,-4.226799964904785,-8.219499588012695
1641191872362649300,2.2756494140625,3.540799856185913,-4.179500102996826,-8.134099960327148
1641191872372649500,2.2856494140625,3.808499813079834,-4.120599746704102,-8.042699813842773
1641191872382654000,2.295654052734375,4.1367998123168945,-4.0329999923706055,-7.923999786376953
1641191872392648000,2.30564794921875,4.422999858856201,-3.9447999000549316,-7.8130998611450195
1641191872402649300,2.3156494140625,4.666399955749512,-3.8620998859405518,-7.712100028991699
1641191872412648000,2.32564794921875,4.983799934387207,-3.746500015258789,-7.569299697875977
1641191872422647800,2.335647705078125,5.397199630737305,-3.589399814605713,-7.358999729156494
1641191872432658700,2.34565869140625,5.674200057983398,-3.4788999557495117,-7.201999664306641
1641191872442647800,2.355647705078125,5.957299709320068,-3.3526999950408936,-7.031299591064453
1641191872452648000,2.36564794921875,6.196099758148193,-3.2268998622894287,-6.882199764251709
1641191872462647800,2.375647705078125,6.384899616241455,-3.1011998653411865,-6.766499996185303
1641191872472648000,2.38564794921875,6.501499652862549,-2.9995999336242676,-6.700899600982666
1641191872482660400,2.395660400390625,6.614699840545654,-2.8720998764038086,-6.645699977874756
1641191872492648000,2.40564794921875,6.712100028991699,-2.7476999759674072,-6.600499629974365
1641191872502647800,2.415647705078125,6.802099704742432,-2.630199909210205,-6.556099891662598
1641191872512648000,2.42564794921875,6.899499893188477,-2.4995999336242676,-6.505300045013428
1641191872522647800,2.435647705078125,6.973799705505371,-2.3959999084472656,-6.464799880981445
1641191872532661800,2.445661865234375,7.04040002822876,-2.3041000366210938,-6.425999641418457
1641191872542649300,2.4556494140625,7.111499786376953,-2.2119998931884766,-6.379799842834473
1641191872552649500,2.4656494140625,7.19849967956543,-2.1061999797821045,-6.317800045013428
1641191872562649300,2.4756494140625,7.293900012969971,-1.9905999898910522,-6.245499610900879
1641191872572649500,2.4856494140625,7.41379976272583,-1.8365999460220337,-6.150699615478516
1641191872582652400,2.49565234375,7.511999607086182,-1.6930999755859375,-6.072299957275391
1641191872592649500,2.5056494140625,7.5914998054504395,-1.563599944114685,-6.0077996253967285
1641191872602649300,2.5156494140625,7.689399719238281,-1.3870999813079834,-5.92609977722168
1641191872612649500,2.5256494140625,7.8048996925354,-1.1538000106811523,-5.824199676513672
1641191872622649300,2.5356494140625,7.860599994659424,-1.0343999862670898,-5.771399974822998
1641191872632651000,2.545651123046875,7.940999984741211,-0.8531000018119812,-5.690399646759033
1641191872642649300,2.5556494140625,7.985199928283691,-0.7541999816894531,-5.642399787902832
1641191872652649500,2.5656494140625,8.026700019836426,-0.6556999683380127,-5.59559965133667
1641191872662649300,2.5756494140625,8.058300018310547,-0.5744999647140503,-5.559000015258789
1641191872672649500,2.5856494140625,8.084199905395508,-0.501800000667572,-5.528299808502197
1641191872682649300,2.5956494140625,8.107600212097168,-0.4315999746322632,-5.499899864196777
1641191872692651000,2.605651123046875,8.1343994140625,-0.34439998865127563,-5.466399669647217
1641191872702649300,2.6156494140625,8.154600143432617,-0.2831999957561493,-5.439799785614014
1641191872712649500,2.6256494140625,8.182299613952637,-0.2020999938249588,-5.401599884033203
1641191872722649300,2.6356494140625,8.212200164794922,-0.12029999494552612,-5.358599662780762
1641191872732649500,2.6456494140625,8.249099731445312,-0.028099998831748962,-5.302999973297119
1641191872742652400,2.65565234375,8.272600173950195,0.024399999529123306,-5.266200065612793
1641191872752649500,2.6656494140625,8.297200202941895,0.08659999817609787,-5.22659969329834
1641191872762649300,2.6756494140625,8.304299354553223,0.11719999462366104,-5.214799880981445
1641191872772649500,2.6856494140625,8.302499771118164,0.14909999072551727,-5.216799736022949
1641191872782649300,2.6956494140625,8.298699378967285,0.16279999911785126,-5.222399711608887
1641191872792660200,2.70566015625,8.293399810791016,0.1784999966621399,-5.230400085449219
1641191872802649300,2.7156494140625,8.295199394226074,0.1842999905347824,-5.227399826049805
1641191872812648000,2.72564794921875,8.308599472045898,0.1930999904870987,-5.205599784851074
1641191872822647800,2.735647705078125,8.32289981842041,0.19419999420642853,-5.182699680328369
1641191872832648000,2.74564794921875,8.353899955749512,0.18979999423027039,-5.132800102233887
1641191872842662000,2.755661865234375,8.377599716186523,0.17960000038146973,-5.094399929046631
1641191872852648000,2.76564794921875,8.403800010681152,0.15860000252723694,-5.051799774169922
1641191872862647800,2.775647705078125,8.422800064086914,0.12919999659061432,-5.020899772644043
1641191872872648000,2.78564794921875,8.433199882507324,0.0940999984741211,-5.0040998458862305
1641191872882647800,2.795647705078125,8.436999320983887,0.04989999905228615,-4.99839973449707
1641191872892655600,2.805655517578125,8.433099746704102,0.010099999606609344,-5.005199909210205
1641191872902647800,2.815647705078125,8.426899909973145,-0.013599999248981476,-5.015699863433838
1641191872912648000,2.82564794921875,8.409600257873535,-0.044499997049570084,-5.044399738311768
1641191872922647800,2.835647705078125,8.39900016784668,-0.0616999976336956,-5.061800003051758
1641191872932648000,2.84564794921875,8.387100219726562,-0.0802999958395958,-5.081199645996094
1641191872942658800,2.855658935546875,8.381599426269531,-0.09690000116825104,-5.089999675750732
1641191872952649500,2.8656494140625,8.379799842834473,-0.11889999359846115,-5.092499732971191
1641191872962649300,2.8756494140625,8.380000114440918,-0.14549998939037323,-5.091599941253662
1641191872972649500,2.8856494140625,8.378899574279785,-0.19039998948574066,-5.091799736022949
1641191872982649300,2.8956494140625,8.374499320983887,-0.2465999871492386,-5.09660005569458
1641191872992661800,2.905661865234375,8.362500190734863,-0.3335999846458435,-5.1113996505737305
1641191873002652400,2.91565234375,8.35629940032959,-0.38679999113082886,-5.1178998947143555
1641191873012649500,2.9256494140625,8.351900100708008,-0.45329999923706055,-5.1194000244140625
1641191873022649300,2.9356494140625,8.353499412536621,-0.5065999627113342,-5.1118998527526855
1641191873032649500,2.9456494140625,8.361899375915527,-0.5701000094413757,-5.091399669647217
1641191873042655700,2.95565576171875,8.377399444580078,-0.6306999921798706,-5.058799743652344
1641191873052649500,2.9656494140625,8.398300170898438,-0.6881999969482422,-5.01639986038208
1641191873062649300,2.9756494140625,8.425600051879883,-0.7551999688148499,-4.960599899291992
1641191873072649500,2.9856494140625,8.446399688720703,-0.8150999546051025,-4.915499687194824
1641191873082649300,2.9956494140625,8.45580005645752,-0.8689000010490417,-4.890100002288818
1641191873092660200,3.00566015625,8.44909954071045,-0.9558999538421631,-4.8856000900268555
1641191873102649300,3.0156494140625,8.432299613952637,-1.0020999908447266,-4.905200004577637
1641191873112649500,3.0256494140625,8.36829948425293,-1.0655999183654785,-5.0005998611450195
1641191873122649300,3.0356494140625,8.299699783325195,-1.1009999513626099,-5.105999946594238
1641191873132649500,3.0456494140625,8.14579963684082,-1.139799952507019,-5.339900016784668
1641191873142654000,3.055654052734375,8.007399559020996,-1.1638000011444092,-5.54040002822876
1641191873152649500,3.0656494140625,7.7216997146606445,-1.204699993133545,-5.9238996505737305
1641191873162649300,3.0756494140625,7.538099765777588,-1.2396999597549438,-6.148900032043457
1641191873172649500,3.0856494140625,7.2281999588012695,-1.3102999925613403,-6.496500015258789
1641191873182649300,3.0956494140625,6.7967000007629395,-1.4437999725341797,-6.920199871063232
1641191873192654000,3.105654052734375,6.326399803161621,-1.6418999433517456,-7.310999870300293
1641191873202649300,3.1156494140625,6.052099704742432,-1.7972999811172485,-7.503999710083008
1641191873212649500,3.1256494140625,5.712699890136719,-2.0376999378204346,-7.705899715423584
1641191873222649300,3.1356494140625,5.347499847412109,-2.3452999591827393,-7.878599643707275
1641191873232648000,3.14564794921875,4.995299816131592,-2.686800003051758,-7.999799728393555
1641191873242657300,3.1556572265625,4.592899799346924,-3.125499963760376,-8.081199645996094
1641191873252648000,3.16564794921875,4.270400047302246,-3.5147998332977295,-8.098099708557129
1641191873262647800,3.175647705078125,3.958099842071533,-3.9214999675750732,-8.069999694824219
1641191873272648000,3.18564794921875,3.728599786758423,-4.258500099182129,-8.008199691772461
1641191873282647800,3.195647705078125,3.484299898147583,-4.678499698638916,-7.882899761199951
1641191873292651000,3.205651123046875,3.296099901199341,-5.081599712371826,-7.712399959564209
1641191873302647800,3.215647705078125,3.177500009536743,-5.4452996253967285,-7.511399745941162
1641191873312648000,3.22564794921875,3.1331000328063965,-5.8090996742248535,-7.2530999183654785
1641191873322647800,3.235647705078125,3.1668999195098877,-5.996200084686279,-7.084099769592285
1641191873332648000,3.24564794921875,3.255699872970581,-6.163699626922607,-6.89769983291626
1641191873342652400,3.25565234375,3.3583998680114746,-6.281300067901611,-6.740599632263184
1641191873352648000,3.26564794921875,3.4492998123168945,-6.3725996017456055,-6.607699871063232
1641191873362647800,3.275647705078125,3.5189998149871826,-6.447700023651123,-6.497200012207031
1641191873372649500,3.2856494140625,3.5869998931884766,-6.513399600982666,-6.393599987030029
1641191873382649300,3.2956494140625,3.6294000148773193,-6.54040002822876,-6.341799736022949
1641191873392649500,3.3056494140625,3.691999912261963,-6.565700054168701,-6.279299736022949
1641191873402651000,3.31565087890625,3.718899965286255,-6.570099830627441,-6.258699893951416
1641191873412649500,3.3256494140625,3.743499994277954,-6.566099643707275,-6.248300075531006
1641191873422649300,3.3356494140625,3.7645998001098633,-6.555999755859375,-6.246299743652344
1641191873432649500,3.3456494140625,3.7928998470306396,-6.529699802398682,-6.2565999031066895
1641191873442649300,3.3556494140625,3.8058998584747314,-6.490799903869629,-6.2891998291015625
1641191873452661800,3.365661865234375,3.803299903869629,-6.444599628448486,-6.3379998207092285
1641191873462649300,3.3756494140625,3.7769999504089355,-6.379799842834473,-6.418799877166748
1641191873472649500,3.3856494140625,3.730299949645996,-6.318599700927734,-6.506099700927734
1641191873482649300,3.3956494140625,3.676800012588501,-6.263499736785889,-6.58929967880249
1641191873492649500,3.4056494140625,3.626499891281128,-6.193899631500244,-6.682299613952637
1641191873502652400,3.41565234375,3.6068999767303467,-6.137099742889404,-6.744899749755859
1641191873512649500,3.4256494140625,3.5936999320983887,-6.054499626159668,-6.826200008392334
1641191873522649300,3.4356494140625,3.5782999992370605,-5.962899684906006,-6.914299964904785
1641191873532649500,3.4456494140625,3.554799795150757,-5.864899635314941,-7.009699821472168
1641191873542649300,3.4556494140625,3.5195000171661377,-5.7378997802734375,-7.131499767303467
1641191873552660200,3.46566015625,3.4761998653411865,-5.621099948883057,-7.244899749755859
1641191873562649300,3.4756494140625,3.399399995803833,-5.49459981918335,-7.377099990844727
1641191873572649500,3.4856494140625,3.276099920272827,-5.370199680328369,-7.523099899291992
1641191873582649300,3.4956494140625,3.1522998809814453,-5.2829999923706055,-7.6367998123168945
1641191873592649500,3.5056494140625,2.9214999675750732,-5.165899753570557,-7.8069000244140625
1641191873602657300,3.5156572265625,2.7730000019073486,-5.113399982452393,-7.895099639892578
1641191873612649500,3.5256494140625,2.4898998737335205,-5.035399913787842,-8.038299560546875
1641191873622649300,3.5356494140625,2.2970998287200928,-4.984799861907959,-8.126799583435059
1641191873632649500,3.5456494140625,2.050999879837036,-4.923799991607666,-8.229100227355957
1641191873642649300,3.5556494140625,1.7864999771118164,-4.858500003814697,-8.328999519348145
1641191873652661800,3.565661865234375,1.490799903869629,-4.779200077056885,-8.43239974975586
1641191873662649300,3.5756494140625,1.1626999378204346,-4.697499752044678,-8.529399871826172
1641191873672648000,3.58564794921875,0.8396999835968018,-4.6331000328063965,-8.60219955444336
1641191873682647800,3.595647705078125,0.5496999621391296,-4.583099842071533,-8.652299880981445
1641191873692648000,3.60564794921875,0.25290000438690186,-4.530299663543701,-8.69379997253418
1641191873702655700,3.61565576171875,0.08720000088214874,-4.497099876403809,-8.714200019836426
1641191873712648000,3.62564794921875,-0.07750000059604645,-4.4552998542785645,-8.735799789428711
1641191873722647800,3.635647705078125,-0.21169999241828918,-4.404299736022949,-8.7593994140625
1641191873732648000,3.64564794921875,-0.33799999952316284,-4.332099914550781,-8.791299819946289
1641191873742647800,3.655647705078125,-0.5177000164985657,-4.205999851226807,-8.84369945526123
1641191873752654000,3.665654052734375,-0.733299970626831,-4.066199779510498,-8.893699645996094
1641191873762647800,3.675647705078125,-0.9959999918937683,-3.9171998500823975,-8.93489933013916
1641191873772648000,3.68564794921875,-1.1851999759674072,-3.8202998638153076,-8.953800201416016
1641191873782647800,3.695647705078125,-1.3381999731063843,-3.735799789428711,-8.96780014038086
1641191873792649500,3.7056494140625,-1.3971999883651733,-3.6682000160217285,-8.986700057983398
1641191873802651000,3.71565087890625,-1.3751999139785767,-3.616299867630005,-9.011099815368652
1641191873812649500,3.7256494140625,-1.3317999839782715,-3.5576000213623047,-9.040999412536621
1641191873822649300,3.7356494140625,-1.284500002861023,-3.476799964904785,-9.079099655151367
1641191873832649500,3.7456494140625,-1.2724000215530396,-3.4079999923706055,-9.106900215148926
1641191873842649300,3.7556494140625,-1.3084999322891235,-3.2854998111724854,-9.146699905395508
1641191873852660200,3.76566015625,-1.4155999422073364,-3.144199848175049,-9.180399894714355
1641191873862649300,3.7756494140625,-1.5719999074935913,-2.997999906539917,-9.203800201416016
1641191873872649500,3.7856494140625,-1.7517999410629272,-2.8389999866485596,-9.221699714660645
1641191873882649300,3.7956494140625,-1.8435999155044556,-2.7479000091552734,-9.231399536132812
1641191873892649500,3.8056494140625,-1.9404999017715454,-2.631199836730957,-9.245599746704102
1641191873902657300,3.8156572265625,-1.9993999004364014,-2.5463998317718506,-9.256699562072754
1641191873912649500,3.8256494140625,-2.04259991645813,-2.483599901199341,-9.264399528503418
1641191873922649300,3.8356494140625,-2.1016998291015625,-2.4040000438690186,-9.272099494934082
1641191873932649500,3.8456494140625,-2.1823999881744385,-2.308300018310547,-9.277799606323242
1641191873942649300,3.8556494140625,-2.237799882888794,-2.2451999187469482,-9.280099868774414
1641191873952658700,3.86565869140625,-2.3095998764038086,-2.150899887084961,-9.284799575805664
1641191873962649300,3.8756494140625,-2.338099956512451,-2.087599992752075,-9.292200088500977
1641191873972649500,3.8856494140625,-2.3299999237060547,-2.012399911880493,-9.310799598693848
1641191873982649300,3.8956494140625,-2.2841999530792236,-1.9469999074935913,-9.335999488830566
1641191873992649500,3.9056494140625,-2.227099895477295,-1.8829998970031738,-9.362899780273438
1641191874002654000,3.915654052734375,-2.201200008392334,-1.8503999710083008,-9.375499725341797
1641191874012649500,3.9256494140625,-2.1895999908447266,-1.8273999691009521,-9.382699966430664
1641191874022649300,3.9356494140625,-2.1933000087738037,-1.830899953842163,-9.381199836730957
1641191874032649500,3.9456494140625,-2.206699848175049,-1.8499999046325684,-9.374300003051758
1641191874042649300,3.9556494140625,-2.2418999671936035,-1.9066998958587646,-9.354499816894531
1641191874052658700,3.96565869140625,-2.2690999507904053,-1.9607999324798584,-9.336799621582031
1641191874062649300,3.9756494140625,-2.2821998596191406,-1.9976999759674072,-9.325799942016602
1641191874072649500,3.9856494140625,-2.272899866104126,-2.0363998413085938,-9.319600105285645
1641191874082649300,3.9956494140625,-2.241499900817871,-2.0760998725891113,-9.318499565124512
1641191874092649500,4.0056494140625,-2.2124998569488525,-2.1073999404907227,-9.318399429321289
1641191874102655700,4.01565576171875,-2.2089998722076416,-2.142400026321411,-9.311299324035645
1641191874112649500,4.0256494140625,-2.250999927520752,-2.1784000396728516,-9.292799949645996
1641191874122649300,4.0356494140625,-2.2939999103546143,-2.2314000129699707,-9.269700050354004
1641191874132648000,4.04564794921875,-2.3104000091552734,-2.3397998809814453,-9.238800048828125
1641191874142647800,4.055647705078125,-2.2553000450134277,-2.4807000160217285,-9.215700149536133
1641191874152652500,4.065652587890625,-2.154099941253662,-2.6152000427246094,-9.202699661254883
1641191874162647800,4.075647705078125,-2.060499906539917,-2.7181999683380127,-9.194299697875977
1641191874172648000,4.08564794921875,-2.02239990234375,-2.8113999366760254,-9.174699783325195
1641191874182647800,4.095647705078125,-2.041300058364868,-2.862299919128418,-9.154799461364746
1641191874192648000,4.10564794921875,-2.120499849319458,-2.93149995803833,-9.114799499511719
1641191874202662000,4.115661865234375,-2.191699981689453,-2.9848999977111816,-9.080499649047852
1641191874212649500,4.1256494140625,-2.2797999382019043,-3.070199966430664,-9.03030014038086
1641191874222649300,4.1356494140625,-2.359499931335449,-3.198699951171875,-8.964900016784668
1641191874232649500,4.1456494140625,-2.3725998401641846,-3.2734999656677246,-8.934399604797363
1641191874242649300,4.1556494140625,-2.329699993133545,-3.311699867248535,-8.931599617004395
1641191874252655600,4.165655517578125,-2.27810001373291,-3.286799907684326,-8.954099655151367
1641191874262649300,4.1756494140625,-2.170599937438965,-3.1870999336242676,-9.01669979095459
1641191874272649500,4.1856494140625,-2.0202999114990234,-3.037099838256836,-9.102899551391602
1641191874282649300,4.1956494140625,-1.9254999160766602,-2.94569993019104,-9.153399467468262
1641191874292649500,4.2056494140625,-1.8054999113082886,-2.8409998416900635,-9.210700035095215
1641191874302651000,4.21565087890625,-1.7220999002456665,-2.788599967956543,-9.24269962310791
1641191874312649500,4.2256494140625,-1.611299991607666,-2.7224998474121094,-9.282299995422363
1641191874322649300,4.2356494140625,-1.4904999732971191,-2.6131999492645264,-9.333700180053711
1641191874332649500,4.2456494140625,-1.3980000019073486,-2.4319000244140625,-9.39680004119873
1641191874342649300,4.2556494140625,-1.2847999334335327,-2.1742000579833984,-9.475799560546875
1641191874352657200,4.2656572265625,-0.9810999631881714,-1.9833999872207642,-9.553699493408203
1641191874362649300,4.2756494140625,-0.7294999957084656,-1.8524999618530273,-9.602399826049805
1641191874372649500,4.2856494140625,-0.6363999843597412,-1.6721999645233154,-9.642000198364258
1641191874382649300,4.2956494140625,-0.7096999883651733,-1.473599910736084,-9.66919994354248
1641191874392649500,4.3056494140625,-0.809499979019165,-1.3047000169754028,-9.685599327087402
1641191874402649300,4.3156494140625,-0.8848999738693237,-1.1464999914169312,-9.698999404907227
1641191874412649500,4.3256494140625,-0.9873999953269958,-0.9542999863624573,-9.710000038146973
1641191874422649300,4.3356494140625,-1.0232999324798584,-0.8608999848365784,-9.71500015258789
1641191874432649500,4.3456494140625,-1.0388000011444092,-0.7064999938011169,-9.725799560546875
1641191874442655700,4.35565576171875,-1.0525000095367432,-0.5981999635696411,-9.731599807739258
1641191874452649500,4.3656494140625,-1.070199966430664,-0.4478999972343445,-9.737699508666992
1641191874462649300,4.3756494140625,-1.05649995803833,-0.2992999851703644,-9.74489974975586
1641191874472649500,4.3856494140625,-0.9878000020980835,-0.14909999072551727,-9.755599975585938
1641191874482649300,4.3956494140625,-0.9212999939918518,-0.05209999904036522,-9.763099670410156
1641191874492652500,4.405652587890625,-0.8685999512672424,0.009599999524652958,-9.767999649047852
1641191874502647800,4.415647705078125,-0.8380999565124512,0.0471000000834465,-9.770599365234375
1641191874512648000,4.42564794921875,-0.8339999914169312,0.05609999969601631,-9.770899772644043
1641191874522647800,4.435647705078125,-0.861799955368042,0.04259999841451645,-9.768599510192871
1641191874532648000,4.44564794921875,-0.9193999767303467,0.007799999788403511,-9.763400077819824
1641191874542655700,4.45565576171875,-1.0245000123977661,-0.07719999551773071,-9.752599716186523
1641191874552648000,4.46564794921875,-1.156999945640564,-0.18709999322891235,-9.736299514770508
1641191874562647800,4.475647705078125,-1.2971999645233154,-0.3001999855041504,-9.715799331665039
1641191874572648000,4.48564794921875,-1.5101999044418335,-0.4749999940395355,-9.677999496459961
1641191874582647800,4.495647705078125,-1.7325999736785889,-0.6638000011444092,-9.629499435424805
1641191874592658700,4.50565869140625,-1.9772999286651611,-0.9127999544143677,-9.561699867248535
1641191874602647800,4.515647705078125,-2.072700023651123,-1.0389999151229858,-9.528599739074707
1641191874612648000,4.52564794921875,-2.1858999729156494,-1.2275999784469604,-9.48069953918457
1641191874622649300,4.5356494140625,-2.249300003051758,-1.3650000095367432,-9.446999549865723
1641191874632649500,4.5456494140625,-2.2948999404907227,-1.4246000051498413,-9.427299499511719
1641191874642654000,4.555654052734375,-2.333699941635132,-1.4776999950408936,-9.409500122070312
1641191874652649500,4.5656494140625,-2.376699924468994,-1.5540999174118042,-9.38640022277832
1641191874662649300,4.5756494140625,-2.4584999084472656,-1.6797000169754028,-9.343599319458008
1641191874672649500,4.5856494140625,-2.5149998664855957,-1.924899935722351,-9.281099319458008
1641191874682649300,4.5956494140625,-2.5376999378204346,-2.125999927520752,-9.230899810791016
1641191874692657200,4.6056572265625,-2.582900047302246,-2.3897998332977295,-9.153499603271484
1641191874702649300,4.6156494140625,-2.6360998153686523,-2.6031999588012695,-9.07979965209961
1641191874712649500,4.6256494140625,-2.7105000019073486,-2.8519999980926514,-8.982699394226074
1641191874722649300,4.6356494140625,-2.7602999210357666,-3.121999979019165,-8.877099990844727
1641191874732649500,4.6456494140625,-2.7692999839782715,-3.478299856185913,-8.740799903869629
1641191874742657300,4.6556572265625,-2.739300012588501,-3.7375998497009277,-8.6427001953125
1641191874752649500,4.6656494140625,-2.6584999561309814,-4.07349967956543,-8.51509952545166
1641191874762649300,4.6756494140625,-2.554499864578247,-4.404900074005127,-8.380899429321289
1641191874772649500,4.6856494140625,-2.464099884033203,-4.7179999351501465,-8.236299514770508
1641191874782649300,4.6956494140625,-2.3832998275756836,-5.047499656677246,-8.062999725341797
1641191874792649500,4.7056494140625,-2.3664000034332275,-5.27239990234375,-7.922799587249756
1641191874802649300,4.7156494140625,-2.3949999809265137,-5.417399883270264,-7.8155999183654785
1641191874812649500,4.7256494140625,-2.503200054168701,-5.594399929046631,-7.655399799346924
1641191874822649300,4.7356494140625,-2.70169997215271,-5.848199844360352,-7.393799781799316
1641191874832649500,4.7456494140625,-2.8411998748779297,-6.045799732208252,-7.179499626159668
1641191874842662000,4.755661865234375,-2.9415998458862305,-6.291599750518799,-6.923199653625488
1641191874852649500,4.7656494140625,-2.9395999908447266,-6.5503997802734375,-6.6798996925354
1641191874862649300,4.7756494140625,-2.870800018310547,-6.739199638366699,-6.519999980926514
1641191874872651000,4.785651123046875,-2.7632999420166016,-6.921299934387207,-6.374000072479248
1641191874882649300,4.7956494140625,-2.677999973297119,-7.043599605560303,-6.275699615478516
1641191874892661800,4.805661865234375,-2.609099864959717,-7.149899959564209,-6.183899879455566
1641191874902649300,4.8156494140625,-2.57289981842041,-7.212599754333496,-6.125999927520752
1641191874912648000,4.82564794921875,-2.5081000328063965,-7.303799629211426,-6.0441999435424805
1641191874922647800,4.835647705078125,-2.44350004196167,-7.36769962310791,-5.993000030517578
1641191874932648000,4.84564794921875,-2.3320999145507812,-7.452199935913086,-5.932499885559082
1641191874942654000,4.855654052734375,-2.1723999977111816,-7.5630998611450195,-5.852299690246582
1641191874952648000,4.86564794921875,-2.0539000034332275,-7.649499893188477,-5.782399654388428
1641191874962647800,4.875647705078125,-1.8996999263763428,-7.774699687957764,-5.666899681091309
1641191874972648000,4.88564794921875,-1.726599931716919,-7.934000015258789,-5.499000072479248
1641191874982647800,4.895647705078125,-1.6420999765396118,-8.042499542236328,-5.365799903869629
1641191874992658700,4.90565869140625,-1.5680999755859375,-8.203299522399902,-5.139599800109863
1641191875002647800,4.915647705078125,-1.5362999439239502,-8.305099487304688,-4.983399868011475
1641191875012648000,4.92564794921875,-1.4984999895095825,-8.466499328613281,-4.716099739074707
1641191875022647800,4.935647705078125,-1.4872000217437744,-8.548199653625488,-4.570099830627441
1641191875032648000,4.94564794921875,-1.487299919128418,-8.675899505615234,-4.322700023651123
1641191875042658800,4.955658935546875,-1.4890999794006348,-8.771200180053711,-4.12529993057251
1641191875052649500,4.9656494140625,-1.4693999290466309,-8.84119987487793,-3.980299949645996
1641191875062649300,4.9756494140625,-1.4013999700546265,-8.925199508666992,-3.8137998580932617
1641191875072649500,4.9856494140625,-1.2903999090194702,-9.007499694824219,-3.6562998294830322
1641191875082649300,4.9956494140625,-1.1402000188827515,-9.085100173950195,-3.5114998817443848
1641191875092652500,5.005652587890625,-0.9220999479293823,-9.16450023651123,-3.365999937057495
1641191875102649300,5.0156494140625,-0.7633000016212463,-9.207099914550781,-3.2886998653411865
1641191875112649500,5.0256494140625,-0.557200014591217,-9.250999450683594,-3.2059998512268066
1641191875122649300,5.0356494140625,-0.3637999892234802,-9.287699699401855,-3.126499891281128
1641191875132649500,5.0456494140625,-0.2101999968290329,-9.321000099182129,-3.040299892425537
1641191875142658800,5.055658935546875,-0.09950000047683716,-9.355299949645996,-2.9388999938964844
1641191875152649500,5.0656494140625,-0.0015999999595806003,-9.398699760437012,-2.7988998889923096
1641191875162649300,5.0756494140625,0.047199998050928116,-9.428400039672852,-2.6965999603271484
1641191875172649500,5.0856494140625,0.09139999747276306,-9.465099334716797,-2.5635998249053955
1641191875182649300,5.0956494140625,0.12629999220371246,-9.499799728393555,-2.430500030517578
1641191875192657200,5.1056572265625,0.15959998965263367,-9.531099319458008,-2.3023998737335205
1641191875202649300,5.1156494140625,0.18869999051094055,-9.557600021362305,-2.1875998973846436
1641191875212649500,5.1256494140625,0.21859999001026154,-9.583499908447266,-2.0683999061584473
1641191875222649300,5.1356494140625,0.2345999926328659,-9.595600128173828,-2.0095999240875244
1641191875232649500,5.1456494140625,0.24949999153614044,-9.604499816894531,-1.9649999141693115
1641191875242652400,5.15565234375,0.260699987411499,-9.609199523925781,-1.9404000043869019
1641191875252649500,5.1656494140625,0.27489998936653137,-9.613299369812012,-1.9175999164581299
1641191875262649300,5.1756494140625,0.2856000065803528,-9.617400169372559,-1.8955999612808228
1641191875272649500,5.1856494140625,0.2906999886035919,-9.625999450683594,-1.8507999181747437
1641191875282649300,5.1956494140625,0.28759998083114624,-9.640999794006348,-1.771399974822998
1641191875292658700,5.20565869140625,0.280599981546402,-9.667900085449219,-1.6193000078201294
1641191875302649300,5.2156494140625,0.2766999900341034,-9.700200080871582,-1.413699984550476
1641191875312649500,5.2256494140625,0.2890999913215637,-9.749199867248535,-1.0191999673843384
1641191875322649300,5.2356494140625,0.3400000035762787,-9.787199974060059,-0.5141000151634216
1641191875332649500,5.2456494140625,0.4493999779224396,-9.795499801635742,0.12269999831914902
1641191875342655700,5.25565576171875,0.5604999661445618,-9.773699760437012,0.5737000107765198
1641191875352649500,5.2656494140625,0.6394000053405762,-9.752999305725098,0.7996000051498413
1641191875362649300,5.2756494140625,0.6965999603271484,-9.740900039672852,0.8940999507904053
1641191875372648000,5.28564794921875,0.7021999955177307,-9.738900184631348,0.9108999967575073
1641191875382647800,5.295647705078125,0.6671000123023987,-9.73960018157959,0.9299999475479126
1641191875392657200,5.3056572265625,0.5846999883651733,-9.743800163269043,0.9409999847412109
1641191875402647800,5.315647705078125,0.5067999958992004,-9.750100135803223,0.9205999970436096
1641191875412648000,5.32564794921875,0.3515999913215637,-9.762999534606934,0.8545999526977539
1641191875422647800,5.335647705078125,0.2572000026702881,-9.769700050354004,0.8102999925613403
1641191875432648000,5.34564794921875,0.0803999975323677,-9.779799461364746,0.7206000089645386
1641191875442654000,5.355654052734375,-0.04429999738931656,-9.785099983215332,0.6477999687194824
1641191875452648000,5.36564794921875,-0.20189999043941498,-9.789899826049805,0.534500002861023
1641191875462649300,5.3756494140625,-0.35089999437332153,-9.792200088500977,0.39890000224113464
1641191875472649500,5.3856494140625,-0.5060999989509583,-9.791199684143066,0.21409998834133148
1641191875482649300,5.3956494140625,-0.5895000100135803,-9.788599967956543,0.07750000059604645
1641191875492651000,5.405651123046875,-0.6654999852180481,-9.78339958190918,-0.10439999401569366
1641191875502649300,5.4156494140625,-0.7091000080108643,-9.776700019836426,-0.28859999775886536
1641191875512649500,5.4256494140625,-0.7179999947547913,-9.769299507141113,-0.46299999952316284
1641191875522649300,5.4356494140625,-0.6916999816894531,-9.760899543762207,-0.6451999545097351
1641191875532649500,5.4456494140625,-0.6539999842643738,-9.755000114440918,-0.7621999979019165
1641191875542655700,5.45565576171875,-0.6229000091552734,-9.751500129699707,-0.8300999999046326
1641191875552649500,5.4656494140625,-0.5895000100135803,-9.747099876403809,-0.9032999873161316
1641191875562649300,5.4756494140625,-0.5853999853134155,-9.74389934539795,-0.9393999576568604
1641191875572649500,5.4856494140625,-0.6171000003814697,-9.738299369812012,-0.9767999649047852
1641191875582649300,5.4956494140625,-0.6951000094413757,-9.728799819946289,-1.01829993724823
1641191875592655600,5.505655517578125,-0.8513000011444092,-9.709699630737305,-1.0799999237060547
1641191875602649300,5.5156494140625,-0.989799976348877,-9.691999435424805,-1.1200000047683716
1641191875612649500,5.5256494140625,-1.188599944114685,-9.666199684143066,-1.1496000289916992
1641191875622649300,5.5356494140625,-1.4721999168395996,-9.626799583435059,-1.1519999504089355
1641191875632649500,5.5456494140625,-1.6245999336242676,-9.605899810791016,-1.1211999654769897
1641191875642657300,5.5556572265625,-1.7821999788284302,-9.588699340820312,-1.024899959564209
1641191875652649500,5.5656494140625,-1.8981999158859253,-9.579099655151367,-0.8981999754905701
1641191875662649300,5.5756494140625,-1.9548999071121216,-9.577099800109863,-0.7912999987602234
1641191875672649500,5.5856494140625,-1.9815999269485474,-9.581600189208984,-0.660099983215332
1641191875682649300,5.5956494140625,-1.9678999185562134,-9.592499732971191,-0.529699981212616
1641191875692655600,5.605655517578125,-1.9198999404907227,-9.608399391174316,-0.40209999680519104
1641191875702649300,5.6156494140625,-1.843999981880188,-9.627599716186523,-0.280599981546402
1641191875712649500,5.6256494140625,-1.7282999753952026,-9.651999473571777,-0.14429999887943268
1641191875722649300,5.6356494140625,-1.643399953842163,-9.667699813842773,-0.0608999989926815
1641191875732649500,5.6456494140625,-1.539199948310852,-9.684999465942383,0.029099998995661736
1641191875742652400,5.65565234375,-1.45579993724823,-9.697400093078613,0.09699999541044235
1641191875752648000,5.66564794921875,-1.410099983215332,-9.70359992980957,0.14249999821186066
1641191875762647800,5.675647705078125,-1.4101999998092651,-9.703100204467773,0.17520000040531158
1641191875772648000,5.68564794921875,-1.4731999635696411,-9.692899703979492,0.21449999511241913
1641191875782649300,5.6956494140625,-1.6021000146865845,-9.67199993133545,0.23279999196529388
1641191875792654000,5.705654052734375,-1.9478999376296997,-9.609299659729004,0.18779999017715454
1641191875802647800,5.715647705078125,-2.4004998207092285,-9.507899284362793,0.07899999618530273
1641191875812648000,5.72564794921875,-2.8290998935699463,-9.389599800109863,-0.017799999564886093
1641191875822647800,5.735647705078125,-3.264400005340576,-9.246999740600586,-0.08289999514818192
1641191875832649500,5.7456494140625,-3.4570000171661377,-9.1766996383667,-0.08229999989271164
1641191875842660400,5.755660400390625,-3.5060999393463135,-9.158199310302734,-0.056299999356269836
1641191875852648000,5.76564794921875,-3.4147000312805176,-9.192899703979492,-0.016999999061226845
1641191875862647800,5.775647705078125,-3.2063000202178955,-9.267600059509277,0.020999999716877937
1641191875872648000,5.78564794921875,-2.9377999305725098,-9.355999946594238,0.0510999970138073
1641191875882649300,5.7956494140625,-2.5964999198913574,-9.456399917602539,0.06119999662041664
1641191875892654000,5.805654052734375,-2.3225998878479004,-9.52750015258789,0.03439999744296074
1641191875902649300,5.8156494140625,-2.0771000385284424,-9.583999633789062,-0.04349999874830246
1641191875912649500,5.8256494140625,-1.9088999032974243,-9.618000030517578,-0.1412999927997589
1641191875922649300,5.8356494140625,-1.733199954032898,-9.648399353027344,-0.27230000495910645
1641191875932649500,5.8456494140625,-1.5882999897003174,-9.669599533081055,-0.3806999921798706
1641191875942658800,5.855658935546875,-1.4498999118804932,-9.687199592590332,-0.4737999737262726
1641191875952649500,5.8656494140625,-1.361799955368042,-9.697500228881836,-0.522599995136261
1641191875962649300,5.8756494140625,-1.3125,-9.703499794006348,-0.5374000072479248
1641191875972649500,5.8856494140625,-1.2736999988555908,-9.709199905395508,-0.527899980545044
1641191875982649300,5.8956494140625,-1.2537999153137207,-9.713399887084961,-0.4967999756336212
1641191875992654000,5.905654052734375,-1.243399977684021,-9.717299461364746,-0.4447000026702881
1641191876002649300,5.9156494140625,-1.2380999326705933,-9.719599723815918,-0.40609997510910034
1641191876012649500,5.9256494140625,-1.223699927330017,-9.723599433898926,-0.35179999470710754
1641191876022649300,5.9356494140625,-1.198799967765808,-9.728099822998047,-0.30959999561309814
1641191876032649500,5.9456494140625,-1.180400013923645,-9.73069953918457,-0.29739999771118164
1641191876042657300,5.9556572265625,-1.141700029373169,-9.735499382019043,-0.2938999831676483
1641191876052649500,5.9656494140625,-1.0983999967575073,-9.74020004272461,-0.30239999294281006
1641191876062649300,5.9756494140625,-1.0530999898910522,-9.744799613952637,-0.3158999979496002
1641191876072649500,5.9856494140625,-0.9957000017166138,-9.750399589538574,-0.32850000262260437
1641191876082649300,5.9956494140625,-0.9547999501228333,-9.754399299621582,-0.33159998059272766
1641191876092654000,6.005654052734375,-0.8996999859809875,-9.759699821472168,-0.3287000060081482
1641191876102649300,6.0156494140625,-0.8398999571800232,-9.765399932861328,-0.31859999895095825
1641191876112649500,6.0256494140625,-0.7754999995231628,-9.771200180053711,-0.30309998989105225
1641191876122649300,6.0356494140625,-0.7066999673843384,-9.776899337768555,-0.2872999906539917
1641191876132649500,6.0456494140625,-0.6175000071525574,-9.78380012512207,-0.2565000057220459
1641191876142658800,6.055658935546875,-0.5363999605178833,-9.789499282836914,-0.21819999814033508
1641191876152649500,6.0656494140625,-0.46449998021125793,-9.793899536132812,-0.1809999942779541
1641191876162647800,6.075647705078125,-0.36640000343322754,-9.79889965057373,-0.12719999253749847
1641191876172648000,6.08564794921875,-0.26319998502731323,-9.802800178527832,-0.0681999996304512
1641191876182647800,6.095647705078125,-0.15879999101161957,-9.805299758911133,-0.005699999630451202
1641191876192660200,6.10566015625,-0.03920000046491623,-9.80620002746582,0.0746999979019165
1641191876202647800,6.115647705078125,0.032999999821186066,-9.8056001663208,0.13429999351501465
1641191876212648000,6.12564794921875,0.13019999861717224,-9.802899360656738,0.23499999940395355
1641191876222647800,6.135647705078125,0.21969999372959137,-9.797999382019043,0.34579998254776
1641191876232648000,6.14564794921875,0.26190000772476196,-9.794699668884277,0.4059000015258789
1641191876242652400,6.15565234375,0.3325999975204468,-9.787399291992188,0.5145999789237976
1641191876252648000,6.16564794921875,0.43050000071525574,-9.7746000289917,0.6636999845504761
1641191876262647800,6.175647705078125,0.5127999782562256,-9.762100219726562,0.7791000008583069
1641191876272648000,6.18564794921875,0.6190999746322632,-9.742400169372559,0.9336999654769897
1641191876282647800,6.195647705078125,0.6877999901771545,-9.722999572753906,1.0765999555587769
1641191876292657200,6.2056572265625,0.6909999847412109,-9.709599494934082,1.1899999380111694
1641191876302649300,6.2156494140625,0.6324999928474426,-9.70259952545166,1.2762999534606934
1641191876312649500,6.2256494140625,0.5038999915122986,-9.697999954223633,1.365299940109253
1641191876322649300,6.2356494140625,0.38929998874664307,-9.695599555969238,1.4189000129699707
1641191876332649500,6.2456494140625,0.1832999885082245,-9.690999984741211,1.4900999069213867
1641191876342660400,6.255660400390625,0.028699999675154686,-9.687199592590332,1.5252000093460083
1641191876352649500,6.2656494140625,-0.1818999946117401,-9.683199882507324,1.5398999452590942
1641191876362649300,6.2756494140625,-0.4056999981403351,-9.679100036621094,1.5227999687194824
1641191876372649500,6.2856494140625,-0.6401000022888184,-9.673299789428711,1.4789999723434448
1641191876382649300,6.2956494140625,-0.8792999982833862,-9.66510009765625,1.407599925994873
1641191876392657200,6.3056572265625,-1.1621999740600586,-9.653999328613281,1.2723000049591064
1641191876402649300,6.3156494140625,-1.3424999713897705,-9.645099639892578,1.1568999290466309
1641191876412649500,6.3256494140625,-1.5471999645233154,-9.632100105285645,0.9985999464988708
1641191876422649300,6.3356494140625,-1.7905999422073364,-9.610799789428711,0.7709999680519104
1641191876432649500,6.3456494140625,-1.9023998975753784,-9.598499298095703,0.6469999551773071
1641191876442654000,6.355654052734375,-2.012399911880493,-9.584400177001953,0.5090999603271484
1641191876452649500,6.3656494140625,-2.0996999740600586,-9.571100234985352,0.3933999836444855
1641191876462649300,6.3756494140625,-2.1596999168395996,-9.560400009155273,0.3222000002861023
1641191876472649500,6.3856494140625,-2.2303998470306396,-9.546500205993652,0.24239999055862427
1641191876482649300,6.3956494140625,-2.300600051879883,-9.531499862670898,0.16529999673366547
1641191876492658700,6.40565869140625,-2.3740999698638916,-9.514399528503418,0.10040000081062317
1641191876502649300,6.4156494140625,-2.453199863433838,-9.494599342346191,0.05339999869465828
1641191876512649500,6.4256494140625,-2.5570998191833496,-9.467299461364746,0.025100000202655792
1641191876522649300,6.4356494140625,-2.634999990463257,-9.445899963378906,0.025200000032782555
1641191876532649500,6.4456494140625,-2.740799903869629,-9.41569995880127,0.03869999945163727
1641191876542654000,6.455654052734375,-2.8671000003814697,-9.377900123596191,0.05999999865889549
1641191876552649500,6.4656494140625,-2.941499948501587,-9.354700088500977,0.08579999953508377
1641191876562649300,6.4756494140625,-3.0195000171661377,-9.328800201416016,0.15929999947547913
1641191876572649500,6.4856494140625,-3.0976998805999756,-9.29990005493164,0.29179999232292175
1641191876582649300,6.4956494140625,-3.1410999298095703,-9.28179931640625,0.38839998841285706
1641191876592658700,6.50565869140625,-3.1838998794555664,-9.26159954071045,0.5047000050544739
1641191876602649300,6.5156494140625,-3.211699962615967,-9.245399475097656,0.6136999726295471
1641191876612649500,6.5256494140625,-3.2246999740600586,-9.233699798583984,0.7134999632835388
1641191876622647800,6.535647705078125,-3.23009991645813,-9.222700119018555,0.8233000040054321
1641191876632649500,6.5456494140625,-3.2322998046875,-9.21780014038086,0.8682999610900879
1641191876642657300,6.5556572265625,-3.2356998920440674,-9.212599754333496,0.9093999862670898
1641191876652648000,6.56564794921875,-3.2338998317718506,-9.211699485778809,0.9246000051498413
1641191876662647800,6.575647705078125,-3.2124998569488525,-9.220699310302734,0.9096999764442444
1641191876672648000,6.58564794921875,-3.1575000286102295,-9.24429988861084,0.8618999719619751
1641191876682647800,6.595647705078125,-3.0695998668670654,-9.278999328613281,0.804099977016449
1641191876692658700,6.60565869140625,-2.933199882507324,-9.328700065612793,0.73499995470047
1641191876702647800,6.615647705078125,-2.8302998542785645,-9.364299774169922,0.6836000084877014
1641191876712648000,6.62564794921875,-2.6919000148773193,-9.410599708557129,0.6031000018119812
1641191876722649300,6.6356494140625,-2.5478999614715576,-9.456299781799316,0.5058000087738037
1641191876732649500,6.6456494140625,-2.406899929046631,-9.497900009155273,0.4074999988079071
1641191876742657300,6.6556572265625,-2.3107998371124268,-9.525099754333496,0.32029998302459717
1641191876752649500,6.6656494140625,-2.4121999740600586,-9.501699447631836,0.2619999945163727
1641191876762649300,6.6756494140625,-2.5961999893188477,-9.454599380493164,0.20009998977184296
1641191876772649500,6.6856494140625,-2.873800039291382,-9.375699996948242,0.08779999613761902
1641191876782649300,6.6956494140625,-3.117300033569336,-9.297800064086914,-0.042899999767541885
1641191876792655600,6.705655517578125,-3.2995998859405518,-9.232699394226074,-0.19789999723434448
1641191876802649300,6.7156494140625,-3.3315999507904053,-9.219499588012695,-0.26420000195503235
1641191876812649500,6.7256494140625,-3.259399890899658,-9.244699478149414,-0.28369998931884766
1641191876822649300,6.7356494140625,-3.1008999347686768,-9.300199508666992,-0.24309998750686646
1641191876832649500,6.7456494140625,-3.001199960708618,-9.333700180053711,-0.20789998769760132
1641191876842666500,6.75566650390625,-2.7958998680114746,-9.398799896240234,-0.12459999322891235
1641191876852649500,6.7656494140625,-2.6745998859405518,-9.434499740600586,-0.07129999995231628
1641191876862649300,6.7756494140625,-2.557499885559082,-9.467199325561523,-0.022499999031424522
1641191876872649500,6.7856494140625,-2.463599920272827,-9.49209976196289,-0.00009999999747378752
1641191876882649300,6.7956494140625,-2.429299831390381,-9.500899314880371,-0.004799999762326479
1641191876892661800,6.805661865234375,-2.4047999382019043,-9.507100105285645,-0.01719999872148037
1641191876902649300,6.8156494140625,-2.392699956893921,-9.510199546813965,-0.013599999248981476
1641191876912649500,6.8256494140625,-2.369499921798706,-9.515999794006348,0.013199999928474426
1641191876922649300,6.8356494140625,-2.329399824142456,-9.525699615478516,0.06129999831318855
1641191876932649500,6.8456494140625,-2.257699966430664,-9.542200088500977,0.13379999995231628
1641191876942662000,6.855661865234375,-2.1808998584747314,-9.559000015258789,0.19699999690055847
1641191876952649500,6.8656494140625,-2.111599922180176,-9.57349967956543,0.24210000038146973
1641191876962649300,6.8756494140625,-2.024899959564209,-9.590999603271484,0.2865000069141388
1641191876972649500,6.8856494140625,-1.945099949836731,-9.606499671936035,0.31709998846054077
1641191876982649300,6.8956494140625,-1.8745999336242676,-9.619999885559082,0.3337000012397766
1641191876992654000,6.905654052734375,-1.8011999130249023,-9.63379955291748,0.337799996137619
1641191877002649300,6.9156494140625,-1.757599949836731,-9.642099380493164,0.33229997754096985
1641191877012649500,6.9256494140625,-1.7069998979568481,-9.651599884033203,0.31929999589920044
1641191877022649300,6.9356494140625,-1.6376999616622925,-9.664299964904785,0.29829999804496765
1641191877032649500,6.9456494140625,-1.5973999500274658,-9.67140007019043,0.28700000047683716
1641191877042654000,6.955654052734375,-1.5541999340057373,-9.67859935760498,0.2784999907016754
1641191877052649500,6.9656494140625,-1.4816999435424805,-9.690199851989746,0.27079999446868896
1641191877062647800,6.975647705078125,-1.4254999160766602,-9.698699951171875,0.2703999876976013
1641191877072648000,6.98564794921875,-1.343999981880188,-9.710100173950195,0.2784000039100647
1641191877082647800,6.995647705078125,-1.2524999380111694,-9.72189998626709,0.29260000586509705
1641191877092652500,7.005652587890625,-1.1542999744415283,-9.733599662780762,0.3061999976634979
1641191877102647800,7.015647705078125,-1.0525000095367432,-9.74489974975586,0.31360000371932983
1641191877112648000,7.02564794921875,-0.9269999861717224,-9.757699966430664,0.3116999864578247
1641191877122647800,7.035647705078125,-0.8429999947547913,-9.765600204467773,0.3033999800682068
1641191877132648000,7.04564794921875,-0.738599956035614,-9.774499893188477,0.28689998388290405
1641191877142658800,7.055658935546875,-0.6345999836921692,-9.782299995422363,0.27079999446868896
1641191877152649500,7.0656494140625,-0.5252000093460083,-9.78909969329834,0.2590999901294708
1641191877162649300,7.0756494140625,-0.4017999768257141,-9.795000076293945,0.25540000200271606
1641191877172649500,7.0856494140625,-0.22859999537467957,-9.800299644470215,0.26669999957084656
1641191877182649300,7.0956494140625,-0.10279999673366547,-9.801799774169922,0.2903999984264374
1641191877192655600,7.105655517578125,0.05379999801516533,-9.800399780273438,0.3447999954223633
1641191877202649300,7.1156494140625,0.23189999163150787,-9.793999671936035,0.439300000667572
1641191877212649500,7.1256494140625,0.33899998664855957,-9.787099838256836,0.5167999863624573
1641191877222649300,7.1356494140625,0.49949997663497925,-9.770999908447266,0.6688999533653259
1641191877232649500,7.1456494140625,0.5541999936103821,-9.763099670410156,0.7378000020980835
1641191877242662000,7.155661865234375,0.6197999715805054,-9.74779987335205,0.8747999668121338
1641191877252649500,7.1656494140625,0.6227999925613403,-9.737199783325195,0.9838999509811401
1641191877262649300,7.1756494140625,0.5859000086784363,-9.73069953918457,1.0674999952316284
1641191877272649500,7.1856494140625,0.5051999688148499,-9.723799705505371,1.1668000221252441
1641191877282649300,7.1956494140625,0.39969998598098755,-9.717299461364746,1.2583999633789062
1641191877292660200,7.20566015625,0.24539999663829803,-9.709199905395508,1.3567999601364136
1641191877302649300,7.2156494140625,0.12019999325275421,-9.70419979095459,1.4083999395370483
1641191877312649500,7.2256494140625,-0.10459999740123749,-9.69849967956543,1.4484999179840088
1641191877322649300,7.2356494140625,-0.27239999175071716,-9.694600105285645,1.4524999856948853
1641191877332649500,7.2456494140625,-0.49059998989105225,-9.687699317932129,1.4408999681472778
1641191877342660400,7.255660400390625,-0.7056999802589417,-9.678199768066406,1.4151999950408936
1641191877352649500,7.2656494140625,-0.9120999574661255,-9.666699409484863,1.3758000135421753
1641191877362649300,7.2756494140625,-1.1069999933242798,-9.653399467468262,1.3246999979019165
1641191877372649500,7.2856494140625,-1.3243999481201172,-9.636199951171875,1.24809992313385
1641191877382649300,7.2956494140625,-1.4559999704360962,-9.624899864196777,1.1875
1641191877392657200,7.3056572265625,-1.625100016593933,-9.610300064086914,1.0817999839782715
1641191877402649300,7.3156494140625,-1.7127000093460083,-9.603699684143066,1.0025999546051025
1641191877412649500,7.3256494140625,-1.7862999439239502,-9.601099967956543,0.8933999538421631
1641191877422649300,7.3356494140625,-1.837499976158142,-9.605500221252441,0.7254999876022339
1641191877432649500,7.3456494140625,-1.8416999578475952,-9.610199928283691,0.6484999656677246
1641191877442658800,7.355658935546875,-1.8282999992370605,-9.620999336242676,0.5133000016212463
1641191877452649500,7.3656494140625,-1.8089998960494995,-9.630999565124512,0.3756999969482422
1641191877462647800,7.375647705078125,-1.8100999593734741,-9.63479995727539,0.251800000667572
1641191877472649500,7.3856494140625,-1.876099944114685,-9.624199867248535,0.15619999170303345
1641191877482647800,7.395647705078125,-2.022899866104126,-9.59529972076416,0.08579999953508377
1641191877492654000,7.405654052734375,-2.2614998817443848,-9.542200088500977,0.029600000008940697
1641191877502647800,7.415647705078125,-2.4326000213623047,-9.500100135803223,0.012799999676644802
1641191877512648000,7.42564794921875,-2.6298999786376953,-9.447400093078613,0.01640000008046627
1641191877522647800,7.435647705078125,-2.7926998138427734,-9.40049934387207,0.038100000470876694
1641191877532648000,7.44564794921875,-2.9400999546051025,-9.355199813842773,0.07369999587535858
1641191877542660400,7.455660400390625,-3.021399974822998,-9.328999519348145,0.1005999967455864
1641191877552649500,7.4656494140625,-3.0677998065948486,-9.313699722290039,0.11739999800920486
1641191877562649300,7.4756494140625,-3.0845999717712402,-9.307999610900879,0.1225999966263771
1641191877572649500,7.4856494140625,-3.0892999172210693,-9.30639934539795,0.12399999797344208
1641191877582649300,7.4956494140625,-3.0800998210906982,-9.309499740600586,0.12610000371932983
1641191877592655600,7.505655517578125,-3.0515999794006348,-9.318699836730957,0.13509999215602875
1641191877602649300,7.5156494140625,-2.995999813079834,-9.336400032043457,0.15760000050067902
1641191877612649500,7.5256494140625,-2.8945999145507812,-9.367400169372559,0.20329999923706055
1641191877622649300,7.5356494140625,-2.759399890899658,-9.406599998474121,0.26489999890327454
1641191877632649500,7.5456494140625,-2.6777000427246094,-9.429200172424316,0.2994999885559082
1641191877642657300,7.5556572265625,-2.5256998538970947,-9.468999862670898,0.3580999970436096
1641191877652649500,7.5656494140625,-2.3696000576019287,-9.5068998336792,0.41599997878074646
1641191877662649300,7.5756494140625,-2.2291998863220215,-9.538199424743652,0.47269999980926514
1641191877672649500,7.5856494140625,-2.10479998588562,-9.562799453735352,0.5406999588012695
1641191877682649300,7.5956494140625,-2.065500020980835,-9.568099975585938,0.5945999622344971
1641191877692652500,7.605652587890625,-2.094399929046631,-9.556099891662598,0.6814999580383301
1641191877702649300,7.6156494140625,-2.2363998889923096,-9.516399383544922,0.7786999940872192
1641191877712649500,7.6256494140625,-2.4600000381469727,-9.45580005645752,0.8400999903678894
1641191877722649300,7.6356494140625,-2.7105000019073486,-9.38949966430664,0.8116999864578247
1641191877732649500,7.6456494140625,-2.9482998847961426,-9.32859992980957,0.6728999614715576
1641191877742654000,7.655654052734375,-3.0274999141693115,-9.313699722290039,0.5085999965667725
1641191877752649500,7.6656494140625,-3.0063998699188232,-9.32699966430664,0.3716999888420105
1641191877762649300,7.6756494140625,-2.9071998596191406,-9.362799644470215,0.23639999330043793
1641191877772649500,7.6856494140625,-2.748499870300293,-9.412199974060059,0.15770000219345093
1641191877782649300,7.6956494140625,-2.5611000061035156,-9.465499877929688,0.11729999631643295
1641191877792654000,7.705654052734375,-2.3454999923706055,-9.521699905395508,0.07580000162124634
1641191877802649300,7.7156494140625,-2.2010998725891113,-9.556300163269043,0.031099999323487282
1641191877812649500,7.7256494140625,-2.1266000270843506,-9.573200225830078,-0.009800000116229057
1641191877822649300,7.7356494140625,-2.0690999031066895,-9.585599899291992,-0.06870000064373016
1641191877832649500,7.7456494140625,-2.068699836730957,-9.585599899291992,-0.08289999514818192
1641191877842652400,7.75565234375,-2.0920000076293945,-9.580499649047852,-0.08129999786615372
1641191877852649500,7.7656494140625,-2.1275999546051025,-9.57289981842041,-0.05179999768733978
1641191877862649300,7.7756494140625,-2.1521999835968018,-9.567500114440918,-0.0044999998062849045
1641191877872649500,7.7856494140625,-2.1613998413085938,-9.565299987792969,0.04989999905228615
1641191877882649300,7.7956494140625,-2.1559998989105225,-9.565699577331543,0.13220000267028809
1641191877892652500,7.805652587890625,-2.132999897003174,-9.569299697875977,0.21969999372959137
1641191877902647800,7.815647705078125,-2.0943000316619873,-9.575499534606934,0.30559998750686646
1641191877912648000,7.82564794921875,-2.035599946975708,-9.58449935913086,0.40309998393058777
1641191877922647800,7.835647705078125,-1.992799997329712,-9.590899467468262,0.4615999758243561
1641191877932648000,7.84564794921875,-1.939099907875061,-9.598699569702148,0.5232999920845032
1641191877942652400,7.85565234375,-1.8878999948501587,-9.60629940032959,0.5701000094413757
1641191877952648000,7.86564794921875,-1.8398998975753784,-9.61359977722168,0.6017000079154968
1641191877962647800,7.875647705078125,-1.7943999767303467,-9.620999336242676,0.6207999587059021
1641191877972649500,7.8856494140625,-1.7422999143600464,-9.630000114440918,0.6299999952316284
1641191877982649300,7.8956494140625,-1.7080999612808228,-9.636199951171875,0.6292999982833862
1641191877992661800,7.905661865234375,-1.6657999753952026,-9.644000053405762,0.621999979019165
1641191878002649300,7.9156494140625,-1.6237999200820923,-9.651999473571777,0.6101999878883362
1641191878012649500,7.9256494140625,-1.5812000036239624,-9.65999984741211,0.5952000021934509
1641191878022649300,7.9356494140625,-1.5180000066757202,-9.671599388122559,0.5709999799728394
1641191878032649500,7.9456494140625,-1.4782999753952026,-9.67859935760498,0.5557999610900879
1641191878042657300,7.9556572265625,-1.4225999116897583,-9.687899589538574,0.5388999581336975
1641191878052649500,7.9656494140625,-1.3716999292373657,-9.695799827575684,0.5291999578475952
1641191878062649300,7.9756494140625,-1.2980999946594238,-9.706299781799316,0.5205000042915344
1641191878072649500,7.9856494140625,-1.2146999835968018,-9.717499732971191,0.5138999819755554
1641191878082649300,7.9956494140625,-1.1216999292373657,-9.728899955749512,0.5090000033378601
1641191878092655600,8.005655517578125,-0.998699963092804,-9.742599487304688,0.5044999718666077
1641191878102649300,8.0156494140625,-0.8844999670982361,-9.75369930267334,0.5023999810218811
1641191878112649500,8.0256494140625,-0.7555999755859375,-9.764299392700195,0.5058000087738037
1641191878122649300,8.0356494140625,-0.6359999775886536,-9.772299766540527,0.5157999992370605
1641191878132649500,8.0456494140625,-0.4649999737739563,-9.780599594116211,0.5411999821662903
1641191878142658800,8.055658935546875,-0.27969998121261597,-9.785399436950684,0.5798999667167664
1641191878152649500,8.0656494140625,-0.0908999964594841,-9.786199569702148,0.6258999705314636
1641191878162649300,8.0756494140625,0.12960000336170197,-9.78179931640625,0.6847999691963196
1641191878172649500,8.0856494140625,0.3012999892234802,-9.774099349975586,0.7383999824523926
1641191878182649300,8.0956494140625,0.42489999532699585,-9.76569938659668,0.7877999544143677
1641191878192652500,8.105652587890624,0.5830999612808228,-9.75,0.8756999969482422
1641191878202649300,8.1156494140625,0.66839998960495,-9.737899780273438,0.946899950504303
1641191878212649500,8.1256494140625,0.740399956703186,-9.7214994430542,1.0549999475479126
1641191878222649300,8.1356494140625,0.7694000005722046,-9.700300216674805,1.2166999578475952
1641191878232649500,8.1456494140625,0.7425000071525574,-9.690299987792969,1.3100999593734741
1641191878242655700,8.15565576171875,0.6484000086784363,-9.677999496459961,1.444100022315979
1641191878252648000,8.16564794921875,0.5058000087738037,-9.6673002243042,1.5673999786376953
1641191878262647800,8.175647705078125,0.320499986410141,-9.659299850463867,1.6625999212265015
1641191878272648000,8.18564794921875,0.09679999947547913,-9.65619945526123,1.7079999446868896
1641191878282647800,8.195647705078125,-0.1517999917268753,-9.656899452209473,1.7000999450683594
1641191878292654000,8.205654052734374,-0.45319998264312744,-9.65619945526123,1.649899959564209
1641191878302647800,8.215647705078124,-0.6421999931335449,-9.651999473571777,1.6110999584197998
1641191878312649500,8.2256494140625,-0.8561999797821045,-9.643199920654297,1.563599944114685
1641191878322647800,8.235647705078126,-1.0437999963760376,-9.632599830627441,1.5138999223709106
1641191878332648000,8.24564794921875,-1.201200008392334,-9.623099327087402,1.4565999507904053
1641191878342658800,8.255658935546874,-1.3523999452590942,-9.615399360656738,1.372499942779541
1641191878352648000,8.26564794921875,-1.448699951171875,-9.613100051879883,1.2876999378204346
1641191878362647800,8.275647705078125,-1.5058000087738037,-9.614500045776367,1.2092000246047974
1641191878372648000,8.28564794921875,-1.5584999322891235,-9.619199752807617,1.1007999181747437
1641191878382647800,8.295647705078125,-1.5972999334335327,-9.625800132751465,0.9809999465942383
1641191878392657200,8.3056572265625,-1.6253999471664429,-9.633599281311035,0.849299967288971
1641191878402649300,8.3156494140625,-1.6450999975204468,-9.641799926757812,0.7060999870300293
1641191878412649500,8.3256494140625,-1.6591999530792236,-9.651100158691406,0.522599995136261
1641191878422649300,8.3356494140625,-1.6628999710083008,-9.6589994430542,0.3296999931335449
1641191878432652500,8.345652587890624,-1.661099910736084,-9.662199974060059,0.2296999990940094
1641191878442655700,8.35565576171875,-1.6516000032424927,-9.666500091552734,0.027499999850988388
1641191878452649500,8.3656494140625,-1.6412999629974365,-9.667699813842773,-0.10359999537467957
1641191878462649300,8.3756494140625,-1.6270999908447266,-9.6673002243042,-0.25519999861717224
1641191878472649500,8.3856494140625,-1.6131999492645264,-9.663999557495117,-0.41599997878074646
1641191878482649300,8.3956494140625,-1.6074999570846558,-9.660699844360352,-0.5062000155448914
1641191878492652500,8.405652587890625,-1.6083999872207642,-9.655399322509766,-0.5958999991416931
1641191878502649300,8.4156494140625,-1.6241999864578247,-9.648599624633789,-0.6597999930381775
1641191878512649500,8.4256494140625,-1.6728999614715576,-9.637800216674805,-0.6956999897956848
1641191878522649300,8.4356494140625,-1.7930999994277954,-9.615799903869629,-0.7005000114440918
1641191878532649500,8.4456494140625,-1.9334999322891235,-9.590299606323242,-0.675599992275238
1641191878542651000,8.45565087890625,-2.0569000244140625,-9.567299842834473,-0.6358999609947205
1641191878552649500,8.4656494140625,-2.202399969100952,-9.539400100708008,-0.5651000142097473
1641191878562649300,8.4756494140625,-2.322499990463257,-9.51550006866455,-0.4795999825000763
1641191878572649500,8.4856494140625,-2.409299850463867,-9.498099327087402,-0.3889999985694885
1641191878582649300,8.4956494140625,-2.461699962615967,-9.487799644470215,-0.30140000581741333
1641191878592654000,8.505654052734375,-2.4883999824523926,-9.483399391174316,-0.20509999990463257
1641191878602649300,8.5156494140625,-2.483299970626831,-9.485799789428711,-0.14649999141693115
1641191878612683800,8.525683837890625,-2.4495999813079834,-9.495399475097656,-0.0762999951839447
1641191878622649300,8.5356494140625,-2.366499900817871,-9.51669979095459,0.02709999866783619
1641191878632652500,8.545652587890626,-2.319000005722046,-9.52810001373291,0.07769999653100967
1641191878642660400,8.555660400390625,-2.2174999713897705,-9.550600051879883,0.1964000016450882
1641191878652649500,8.5656494140625,-2.145699977874756,-9.563799858093262,0.313400000333786
1641191878662649300,8.5756494140625,-2.1164000034332275,-9.56619930267334,0.42229998111724854
1641191878672649500,8.5856494140625,-2.1196999549865723,-9.557799339294434,0.5694000124931335
1641191878682649300,8.5956494140625,-2.1903998851776123,-9.533299446105957,0.6980999708175659
1641191878692661800,8.605661865234374,-2.401099920272827,-9.478599548339844,0.748699963092804
1641191878702649300,8.6156494140625,-2.690999984741211,-9.404399871826172,0.6965999603271484
1641191878712649500,8.6256494140625,-3.0063998699188232,-9.31820011138916,0.5500999689102173
1641191878722647800,8.635647705078124,-3.155099868774414,-9.275599479675293,0.4205999970436096
1641191878732648000,8.64564794921875,-3.253700017929077,-9.247499465942383,0.2583000063896179
1641191878742651000,8.65565087890625,-3.2744998931884766,-9.243000030517578,0.11979999393224716
1641191878752648000,8.66564794921875,-3.216099977493286,-9.264200210571289,0.02969999983906746
1641191878762647800,8.675647705078125,-3.0737998485565186,-9.312399864196777,-0.008999999612569809
1641191878772648000,8.68564794921875,-2.829200029373169,-9.389599800109863,-0.018799999728798866
1641191878782647800,8.695647705078125,-2.6425998210906982,-9.44379997253418,-0.026899999007582664
1641191878792657200,8.7056572265625,-2.4112000465393066,-9.50529956817627,-0.0625
1641191878802647800,8.715647705078124,-2.2119998931884766,-9.552999496459961,-0.12719999253749847
1641191878812649500,8.7256494140625,-2.067699909210205,-9.583999633789062,-0.2004999965429306
1641191878822649300,8.7356494140625,-1.95579993724823,-9.60569953918457,-0.27230000495910645
1641191878832651000,8.745651123046875,-1.9361000061035156,-9.609399795532227,-0.2827000021934509
1641191878842660400,8.755660400390624,-1.9437999725341797,-9.608699798583984,-0.251800000667572
1641191878852649500,8.7656494140625,-1.9650999307632446,-9.606100082397461,-0.17659999430179596
1641191878862649300,8.7756494140625,-1.9833999872207642,-9.603499412536621,-0.08779999613761902
1641191878872649500,8.7856494140625,-1.9990999698638916,-9.60059928894043,0.044099997729063034
1641191878882649300,8.7956494140625,-2.003499984741211,-9.597999572753906,0.18320000171661377
1641191878892652500,8.805652587890625,-1.990399956703186,-9.59630012512207,0.34439998865127563
1641191878902649300,8.8156494140625,-1.970099925994873,-9.5964994430542,0.4421999752521515
1641191878912649500,8.8256494140625,-1.9340999126434326,-9.598299980163574,0.5485999584197998
1641191878922649300,8.8356494140625,-1.892199993133545,-9.601099967956543,0.6381999850273132
1641191878932649500,8.8456494140625,-1.8477998971939087,-9.604700088500977,0.7099999785423279
1641191878942657300,8.8556572265625,-1.8021999597549438,-9.609199523925781,0.76419997215271
1641191878952649500,8.8656494140625,-1.7455999851226807,-9.615799903869629,0.8109999895095825
1641191878962649300,8.8756494140625,-1.7067999839782715,-9.620999336242676,0.8321999907493591
1641191878972649500,8.8856494140625,-1.65749990940094,-9.62809944152832,0.849399983882904
1641191878982649300,8.8956494140625,-1.608199954032898,-9.63539981842041,0.8608999848365784
1641191878992649500,8.9056494140625,-1.5504999160766602,-9.643899917602539,0.8720999956130981
1641191879002649300,8.9156494140625,-1.5123999118804932,-9.649299621582031,0.8792999982833862
1641191879012649500,8.9256494140625,-1.4642999172210693,-9.656000137329102,0.8872999548912048
1641191879022649300,8.9356494140625,-1.3944000005722046,-9.665800094604492,0.8931999802589417
1641191879032651000,8.945651123046876,-1.3517999649047852,-9.671799659729004,0.8935999870300293
1641191879042658800,8.955658935546875,-1.305899977684021,-9.678199768066406,0.8924999833106995
1641191879052649500,8.9656494140625,-1.2422999143600464,-9.68690013885498,0.8885999917984009
1641191879062649300,8.9756494140625,-1.1704999208450317,-9.696599960327148,0.8807999491691589
1641191879072649500,8.9856494140625,-1.0895999670028687,-9.707200050354004,0.8667999505996704
1641191879082649300,8.9956494140625,-0.9982999563217163,-9.718799591064453,0.847599983215332
1641191879092654000,9.005654052734375,-0.8761999607086182,-9.732600212097168,0.8230999708175659
1641191879102649300,9.0156494140625,-0.786300003528595,-9.741399765014648,0.8104999661445618
1641191879112649500,9.0256494140625,-0.6588000059127808,-9.751399993896484,0.8032999634742737
1641191879122649300,9.0356494140625,-0.5037999749183655,-9.760299682617188,0.8070999979972839
1641191879132648000,9.04564794921875,-0.31349998712539673,-9.767000198364258,0.823199987411499
1641191879142652400,9.05565234375,-0.05829999968409538,-9.76919937133789,0.8537999987602234
1641191879152648000,9.06564794921875,0.15549999475479126,-9.765299797058105,0.8852999806404114
1641191879162647800,9.075647705078126,0.3125,-9.75879955291748,0.9147999882698059
1641191879172648000,9.08564794921875,0.4773999750614166,-9.748000144958496,0.9578999876976013
1641191879182647800,9.095647705078125,0.6035000085830688,-9.735799789428711,1.0097999572753906
1641191879192652500,9.105652587890624,0.6879000067710876,-9.723299980163574,1.074299931526184
1641191879202647800,9.115647705078125,0.7267000079154968,-9.711299896240234,1.1538000106811523
1641191879212648000,9.12564794921875,0.7157999873161316,-9.69849967956543,1.2631999254226685
1641191879222647800,9.135647705078124,0.6505999565124512,-9.687600135803223,1.3766999244689941
1641191879232649500,9.1456494140625,0.5952999591827393,-9.683199882507324,1.4321999549865723
1641191879242655700,9.15565576171875,0.46699997782707214,-9.677000045776367,1.5185999870300293
1641191879252649500,9.1656494140625,0.30239999294281006,-9.672599792480469,1.5871999263763428
1641191879262649300,9.1756494140625,0.10159999877214432,-9.670299530029297,1.625999927520752
1641191879272649500,9.1856494140625,-0.1736999899148941,-9.668600082397461,1.6298999786376953
1641191879282649300,9.1956494140625,-0.36559998989105225,-9.665199279785156,1.6186000108718872
1641191879292657200,9.2056572265625,-0.6015999913215637,-9.656000137329102,1.6026999950408936
1641191879302649300,9.2156494140625,-0.8269999623298645,-9.64229965209961,1.5844999551773071
1641191879312649500,9.2256494140625,-1.0379999876022339,-9.626199722290039,1.5579999685287476
1641191879322649300,9.2356494140625,-1.2268999814987183,-9.610499382019043,1.517300009727478
1641191879332649500,9.2456494140625,-1.4199999570846558,-9.59429931640625,1.4498000144958496
1641191879342662000,9.255661865234375,-1.5264999866485596,-9.585899353027344,1.3960999250411987
1641191879352649500,9.2656494140625,-1.6349999904632568,-9.57859992980957,1.3215999603271484
1641191879362649300,9.2756494140625,-1.7249000072479248,-9.573399543762207,1.2425999641418457
1641191879372649500,9.2856494140625,-1.8005999326705933,-9.570199966430664,1.157099962234497
1641191879382649300,9.2956494140625,-1.865899920463562,-9.56879997253418,1.0608999729156494
1641191879392660200,9.30566015625,-1.9354000091552734,-9.568599700927734,0.9297999739646912
1641191879402649300,9.3156494140625,-1.9747999906539917,-9.569799423217773,0.8295999765396118
1641191879412649500,9.3256494140625,-2.011699914932251,-9.573399543762207,0.6872999668121338
1641191879422649300,9.3356494140625,-2.037400007247925,-9.580599784851074,0.4790000021457672
1641191879432649500,9.3456494140625,-2.0383999347686768,-9.585800170898438,0.3563999831676483
1641191879442654000,9.355654052734375,-2.017199993133545,-9.59589958190918,0.13750000298023224
1641191879452649500,9.3656494140625,-1.9817999601364136,-9.604199409484863,-0.04039999842643738
1641191879462649300,9.3756494140625,-1.9333999156951904,-9.61199951171875,-0.20340000092983246
1641191879472649500,9.3856494140625,-1.8907999992370605,-9.617400169372559,-0.31610000133514404
1641191879482649300,9.3956494140625,-1.8402999639511108,-9.622699737548828,-0.4311999976634979
1641191879492654000,9.405654052734375,-1.8018999099731445,-9.625699996948242,-0.5187999606132507
1641191879502649300,9.4156494140625,-1.795699954032898,-9.62339973449707,-0.578000009059906
1641191879512649500,9.4256494140625,-1.8568999767303467,-9.609600067138672,-0.613099992275238
1641191879522682000,9.43568212890625,-1.9635999202728271,-9.588500022888184,-0.6118999719619751
1641191879532649500,9.4456494140625,-2.074199914932251,-9.56659984588623,-0.5884999632835388
1641191879542655700,9.45565576171875,-2.218600034713745,-9.537300109863281,-0.5345999598503113
1641191879552649500,9.4656494140625,-2.3488998413085938,-9.50979995727539,-0.4642999768257141
1641191879562647800,9.475647705078124,-2.4521000385284424,-9.487199783325195,-0.3853999972343445
1641191879572649500,9.4856494140625,-2.5383999347686768,-9.467999458312988,-0.2870999872684479
1641191879582647800,9.495647705078126,-2.578399896621704,-9.45930004119873,-0.2069999873638153
1641191879592652500,9.505652587890625,-2.587399959564209,-9.457900047302246,-0.14829999208450317
1641191879602647800,9.515647705078125,-2.5739998817443848,-9.46239948272705,-0.08289999514818192
1641191879612648000,9.52564794921875,-2.539599895477295,-9.472000122070312,-0.02419999986886978
1641191879622647800,9.535647705078125,-2.4684998989105225,-9.490699768066406,0.053999997675418854
1641191879632651000,9.545651123046875,-2.4064998626708984,-9.505899429321289,0.121799997985363
1641191879642658800,9.555658935546875,-2.34060001373291,-9.520599365234375,0.22019998729228973
1641191879652649500,9.5656494140625,-2.303999900817871,-9.526800155639648,0.3190000057220459
1641191879662649300,9.5756494140625,-2.27810001373291,-9.526899337768555,0.46639999747276306
1641191879672649500,9.5856494140625,-2.2651000022888184,-9.5201997756958,0.6354999542236328
1641191879682649300,9.5956494140625,-2.3245999813079834,-9.494099617004395,0.7917999625205994
1641191879692660200,9.60566015625,-2.6175999641418457,-9.411099433898926,0.8650999665260315
1641191879702649300,9.6156494140625,-2.8864998817443848,-9.335899353027344,0.823199987411499
1641191879712651000,9.625651123046875,-3.180799961090088,-9.249099731445312,0.7109000086784363
1641191879722649300,9.6356494140625,-3.4021999835968018,-9.180099487304688,0.5651000142097473
1641191879732649500,9.6456494140625,-3.5411999225616455,-9.135600090026855,0.41130000352859497
1641191879742662000,9.655661865234375,-3.581199884414673,-9.125,0.28139999508857727
1641191879752649500,9.6656494140625,-3.4823999404907227,-9.165499687194824,0.19049999117851257
1641191879762649300,9.6756494140625,-3.3345999717712402,-9.220799446105957,0.1647000014781952
1641191879772649500,9.6856494140625,-3.085700035095215,-9.30739974975586,0.14229999482631683
1641191879782649300,9.6956494140625,-2.81469988822937,-9.393499374389648,0.09189999848604202
1641191879792660200,9.70566015625,-2.558500051498413,-9.466899871826172,-0.006799999624490738
1641191879802649300,9.7156494140625,-2.3417999744415283,-9.52199935913086,-0.1306999921798706
1641191879812649500,9.7256494140625,-2.1415998935699463,-9.566399574279785,-0.2590000033378601
1641191879822649300,9.7356494140625,-2.0020999908447266,-9.594200134277344,-0.3343999981880188
1641191879832649500,9.7456494140625,-1.9630999565124512,-9.602099418640137,-0.33980000019073486
1641191879842654000,9.755654052734375,-1.939099907875061,-9.608699798583984,-0.2856999933719635
1641191879852649500,9.7656494140625,-1.9484999179840088,-9.608699798583984,-0.21289999783039093
1641191879862649300,9.7756494140625,-1.9804999828338623,-9.604100227355957,-0.08839999884366989
1641191879872649500,9.7856494140625,-2.0257999897003174,-9.59469985961914,0.08169999718666077
1641191879882649300,9.7956494140625,-2.050999879837036,-9.587699890136719,0.19550000131130219
1641191879892654000,9.805654052734376,-2.0685999393463135,-9.580399513244629,0.32580000162124634
1641191879902649300,9.8156494140625,-2.06850004196167,-9.575900077819824,0.43779999017715454
1641191879912649500,9.8256494140625,-2.0521998405456543,-9.574799537658691,0.5306000113487244
1641191879922649300,9.8356494140625,-2.022599935531616,-9.576700210571289,0.604200005531311
1641191879932649500,9.8456494140625,-1.9821999073028564,-9.581500053405762,0.6586999893188477
1641191879942657300,9.8556572265625,-1.9234999418258667,-9.590399742126465,0.7021999955177307
1641191879952649500,9.8656494140625,-1.867799997329712,-9.59999942779541,0.722000002861023
1641191879962649300,9.8756494140625,-1.8191999197006226,-9.60890007019043,0.727899968624115
1641191879972649500,9.8856494140625,-1.7552999258041382,-9.620699882507324,0.727899968624115
1641191879982647800,9.895647705078124,-1.6898999214172363,-9.632599830627441,0.7254999876022339
1641191879992655600,9.905655517578126,-1.6246999502182007,-9.643899917602539,0.723800003528595
1641191880002647800,9.915647705078126,-1.559899926185608,-9.654600143432617,0.7235999703407288
1641191880012648000,9.92564794921875,-1.482800006866455,-9.666600227355957,0.7265999913215637
1641191880022647800,9.935647705078125,-1.404599905014038,-9.67770004272461,0.7337999939918518
1641191880032648000,9.94564794921875,-1.3496999740600586,-9.684999465942383,0.740399956703186
1641191880042655700,9.95565576171875,-1.2892999649047852,-9.69279956817627,0.7455999851226807
1641191880052648000,9.96564794921875,-1.2043999433517456,-9.70359992980957,0.7470999956130981
1641191880062647800,9.975647705078124,-1.0878000259399414,-9.71780014038086,0.7423999905586243
1641191880072649500,9.9856494140625,-0.9680999517440796,-9.730999946594238,0.7340999841690063
1641191880082649300,9.9956494140625,-0.8436999917030334,-9.743199348449707,0.7261999845504761
1641191880092657200,10.0056572265625,-0.6435999870300293,-9.75879955291748,0.7213000059127808
1641191880102649300,10.0156494140625,-0.4059000015258789,-9.771100044250488,0.7281000018119812
1641191880112649500,10.0256494140625,-0.15459999442100525,-9.776899337768555,0.746399998664856
1641191880122649300,10.0356494140625,0.07719999551773071,-9.775799751281738,0.7731999754905701
1641191880132649500,10.0456494140625,0.30159997940063477,-9.768499374389648,0.809499979019165
1641191880142655700,10.05565576171875,0.40359997749328613,-9.762800216674805,0.833299994468689
1641191880152649500,10.0656494140625,0.47429999709129333,-9.756799697875977,0.8651999831199646
1641191880162649300,10.0756494140625,0.49719998240470886,-9.751999855041504,0.9059999585151672
1641191880172649500,10.0856494140625,0.4828999936580658,-9.747499465942383,0.9598999619483948
1641191880182649300,10.0956494140625,0.44439998269081116,-9.742300033569336,1.028999924659729
1641191880192658700,10.10565869140625,0.37939998507499695,-9.732699394226074,1.139699935913086
1641191880202649300,10.1156494140625,0.34389999508857727,-9.725799560546875,1.2085000276565552
1641191880212649500,10.1256494140625,0.2955999970436096,-9.714200019836426,1.3101999759674072
1641191880222649300,10.1356494140625,0.22369998693466187,-9.697799682617188,1.4391999244689941
1641191880232649500,10.1456494140625,0.17000000178813934,-9.689799308776855,1.4990999698638916
1641191880242652400,10.15565234375,0.0729999989271164,-9.683599472045898,1.5464999675750732
1641191880252649500,10.1656494140625,-0.05939999967813492,-9.682299613952637,1.555299997329712
1641191880262649300,10.1756494140625,-0.19119998812675476,-9.683300018310547,1.5383999347686768
1641191880272649500,10.1856494140625,-0.3734999895095825,-9.68179988861084,1.5138999223709106
1641191880282649300,10.1956494140625,-0.5597999691963196,-9.674599647521973,1.5024999380111694
1641191880292655600,10.205655517578125,-0.7455999851226807,-9.662399291992188,1.5003999471664429
1641191880302649300,10.2156494140625,-0.9286999702453613,-9.647799491882324,1.4922000169754028
1641191880312649500,10.2256494140625,-1.140299916267395,-9.630099296569824,1.459399938583374
1641191880322649300,10.2356494140625,-1.2703999280929565,-9.619999885559082,1.418299913406372
1641191880332651000,10.245651123046875,-1.413599967956543,-9.610300064086914,1.3465999364852905
1641191880342658800,10.255658935546874,-1.5353999137878418,-9.602999687194824,1.2623999118804932
1641191880352649500,10.2656494140625,-1.6366000175476074,-9.597799301147461,1.1718999147415161
1641191880362649300,10.2756494140625,-1.7186999320983887,-9.594799995422363,1.0751999616622925
1641191880372649500,10.2856494140625,-1.7973999977111816,-9.593599319458008,0.9491999745368958
1641191880382649300,10.2956494140625,-1.8391000032424927,-9.59429931640625,0.8585000038146973
1641191880392655600,10.305655517578124,-1.8799999952316284,-9.596199989318848,0.7400999665260315
1641191880402647800,10.315647705078124,-1.9092999696731567,-9.598999977111816,0.6180999875068665
1641191880412648000,10.32564794921875,-1.9244999885559082,-9.603400230407715,0.4900999963283539
1641191880422647800,10.335647705078125,-1.9210000038146973,-9.611899375915527,0.3010999858379364
1641191880432649500,10.3456494140625,-1.9038000106811523,-9.618399620056152,0.1744999885559082
1641191880442660400,10.355660400390626,-1.8746999502182007,-9.62559986114502,0.046699997037649155
1641191880452648000,10.36564794921875,-1.8411999940872192,-9.631999969482422,-0.06199999898672104
1641191880462647800,10.375647705078125,-1.7960999011993408,-9.638899803161621,-0.18609999120235443
1641191880472648000,10.38564794921875,-1.7569999694824219,-9.643499374389648,-0.29089999198913574
1641191880482649300,10.3956494140625,-1.756500005722046,-9.64109992980957,-0.3658999800682068
1641191880492654000,10.405654052734375,-1.8492999076843262,-9.621899604797363,-0.41110000014305115
1641191880502649300,10.4156494140625,-1.9921998977661133,-9.593299865722656,-0.4106999933719635
1641191880512649500,10.4256494140625,-2.129199981689453,-9.564899444580078,-0.3854999840259552
1641191880522649300,10.4356494140625,-2.2978999614715576,-9.527799606323242,-0.3325999975204468
1641191880532649500,10.4456494140625,-2.4438998699188232,-9.493499755859375,-0.2660999894142151
1641191880542662000,10.455661865234376,-2.5678999423980713,-9.462599754333496,-0.1850999891757965
1641191880552649500,10.4656494140625,-2.651599884033203,-9.440699577331543,-0.10249999910593033
1641191880562649300,10.4756494140625,-2.6854000091552734,-9.431599617004395,-0.04580000042915344
1641191880572649500,10.4856494140625,-2.698699951171875,-9.427899360656738,0.017500000074505806
1641191880582649300,10.4956494140625,-2.6884000301361084,-9.4306001663208,0.0729999989271164
1641191880592654000,10.505654052734375,-2.6566998958587646,-9.439099311828613,0.12229999899864197
1641191880602649300,10.5156494140625,-2.602299928665161,-9.453499794006348,0.16899999976158142
1641191880612649500,10.5256494140625,-2.5120999813079834,-9.47659969329834,0.2289000004529953
1641191880622649300,10.5356494140625,-2.406399965286255,-9.502099990844727,0.29839998483657837
1641191880632649500,10.5456494140625,-2.355599880218506,-9.513400077819824,0.33889999985694885
1641191880642662000,10.555661865234375,-2.286099910736084,-9.527199745178223,0.4189999997615814
1641191880652649500,10.5656494140625,-2.2356998920440674,-9.53439998626709,0.5149999856948853
1641191880662649300,10.5756494140625,-2.2032999992370605,-9.535499572753906,0.6234999895095825
1641191880672649500,10.5856494140625,-2.190999984741211,-9.528900146484375,0.7545999884605408
1641191880682649300,10.5956494140625,-2.2620999813079834,-9.50719928741455,0.8156999945640564
1641191880692660200,10.60566015625,-2.486799955368042,-9.450399398803711,0.8210999965667725
1641191880702649300,10.6156494140625,-2.7623000144958496,-9.379199981689453,0.7544999718666077
1641191880712649500,10.6256494140625,-3.0074000358581543,-9.312399864196777,0.6354999542236328
1641191880722649300,10.6356494140625,-3.1776998043060303,-9.264200210571289,0.49549999833106995
1641191880732649500,10.6456494140625,-3.2784998416900635,-9.236299514770508,0.3328000009059906
1641191880742658800,10.655658935546874,-3.2692999839782715,-9.242799758911133,0.2263999879360199
1641191880752649500,10.6656494140625,-3.186199903488159,-9.272899627685547,0.17350000143051147
1641191880762649300,10.6756494140625,-3.0053999423980713,-9.333700180053711,0.13930000364780426
1641191880772649500,10.6856494140625,-2.7776999473571777,-9.40429973602295,0.11089999973773956
1641191880782649300,10.6956494140625,-2.537799835205078,-9.472299575805664,0.06359999626874924
1641191880792660200,10.70566015625,-2.2769999504089355,-9.53849983215332,-0.025299999862909317
1641191880802649300,10.7156494140625,-2.140399932861328,-9.56969928741455,-0.09160000085830688
1641191880812648000,10.72564794921875,-2.0020999908447266,-9.598499298095703,-0.17149999737739563
1641191880822647800,10.735647705078126,-1.9284999370574951,-9.612799644470215,-0.2094999998807907
1641191880832649500,10.7456494140625,-1.9167999029159546,-9.615300178527832,-0.20349998772144318
1641191880842655700,10.75565576171875,-1.9363999366760254,-9.612199783325195,-0.1559000015258789
1641191880852648000,10.76564794921875,-1.965399980545044,-9.607199668884277,-0.09359999746084213
1641191880862647800,10.775647705078125,-2.0035998821258545,-9.599699974060059,0.004299999680370092
1641191880872648000,10.78564794921875,-2.038800001144409,-9.591400146484375,0.13419999182224274
1641191880882647800,10.795647705078125,-2.0500998497009277,-9.587299346923828,0.22169999778270721
1641191880892658700,10.80565869140625,-2.0478999614715576,-9.58489990234375,0.32510000467300415
1641191880902649300,10.8156494140625,-2.0316998958587646,-9.584699630737305,0.4179999828338623
1641191880912649500,10.8256494140625,-2.004499912261963,-9.586699485778809,0.4967999756336212
1641191880922649300,10.8356494140625,-1.9703999757766724,-9.590099334716797,0.5622999668121338
1641191880932649500,10.8456494140625,-1.924899935722351,-9.595399856567383,0.6261999607086182
1641191880942654000,10.855654052734375,-1.892199993133545,-9.599699974060059,0.6593999862670898
1641191880952649500,10.8656494140625,-1.8492999076843262,-9.605999946594238,0.6881999969482422
1641191880962649300,10.8756494140625,-1.8044999837875366,-9.613200187683105,0.7062999606132507
1641191880972649500,10.8856494140625,-1.7587999105453491,-9.62090015411377,0.7167999744415283
1641191880982649300,10.8956494140625,-1.7134000062942505,-9.628600120544434,0.7239999771118164
1641191880992654000,10.905654052734375,-1.6588000059127808,-9.637700080871582,0.7299000024795532
1641191881002649300,10.9156494140625,-1.621500015258789,-9.643899917602539,0.731499969959259
1641191881012649500,10.9256494140625,-1.5721999406814575,-9.652199745178223,0.7290999889373779
1641191881022649300,10.9356494140625,-1.4979000091552734,-9.664799690246582,0.7188000082969666
1641191881032649500,10.9456494140625,-1.4509999752044678,-9.672599792480469,0.7103999853134155
1641191881042652400,10.95565234375,-1.3841999769210815,-9.683199882507324,0.6995999813079834
1641191881052649500,10.9656494140625,-1.3079999685287476,-9.694499969482422,0.6890999674797058
1641191881062649300,10.9756494140625,-1.2380999326705933,-9.704299926757812,0.680899977684021
1641191881072649500,10.9856494140625,-1.1403999328613281,-9.717000007629395,0.6699000000953674
1641191881082649300,10.9956494140625,-1.0292999744415283,-9.730199813842773,0.6583999991416931
1641191881092658700,11.00565869140625,-0.8970999717712402,-9.743800163269043,0.6502999663352966
1641191881102649300,11.0156494140625,-0.7312999963760376,-9.757499694824219,0.6518999934196472
1641191881112649500,11.0256494140625,-0.4894999861717224,-9.771100044250488,0.6746000051498413
1641191881122649300,11.0356494140625,-0.30879998207092285,-9.77649974822998,0.7031999826431274
1641191881132649500,11.0456494140625,-0.08269999921321869,-9.777599334716797,0.7484999895095825
1641191881142654000,11.055654052734376,0.12060000002384186,-9.773599624633789,0.795199990272522
1641191881152649500,11.0656494140625,0.28700000047683716,-9.766200065612793,0.8410999774932861
1641191881162649300,11.0756494140625,0.4327999949455261,-9.755899429321289,0.8971999883651733
1641191881172649500,11.0856494140625,0.5094000101089478,-9.74739933013916,0.9472999572753906
1641191881182647800,11.095647705078125,0.5381999611854553,-9.741199493408203,0.9939000010490417
1641191881192654000,11.105654052734375,0.5430999994277954,-9.733200073242188,1.0670000314712524
1641191881202647800,11.115647705078125,0.5271999835968018,-9.724100112915039,1.1548999547958374
1641191881212648000,11.12564794921875,0.4967999756336212,-9.713799476623535,1.251099944114685
1641191881222647800,11.135647705078124,0.4391999840736389,-9.699999809265137,1.3732999563217163
1641191881232649500,11.1456494140625,0.3804999887943268,-9.691999435424805,1.4457999467849731
1641191881242660400,11.155660400390625,0.284199982881546,-9.686999320983887,1.5003999471664429
1641191881252648000,11.16564794921875,0.17880000174045563,-9.687399864196777,1.513700008392334
1641191881262647800,11.175647705078125,0.01759999990463257,-9.69219970703125,1.4931999444961548
1641191881272648000,11.18564794921875,-0.15789999067783356,-9.696000099182129,1.4600999355316162
1641191881282647800,11.195647705078125,-0.335099995136261,-9.694999694824219,1.4368000030517578
1641191881292651000,11.205651123046875,-0.5471999645233154,-9.687600135803223,1.4213999509811401
1641191881302647800,11.215647705078124,-0.724299967288971,-9.677800178527832,1.4084999561309814
1641191881312648000,11.22564794921875,-0.8646999597549438,-9.66919994354248,1.3887999057769775
1641191881322649300,11.2356494140625,-1.031999945640564,-9.659099578857422,1.3435999155044556
1641191881332649500,11.2456494140625,-1.1836999654769897,-9.650899887084961,1.2759000062942505
1641191881342663400,11.255663330078125,-1.3151999711990356,-9.645099639892578,1.1876999139785767
1641191881352649500,11.2656494140625,-1.4494999647140503,-9.639999389648438,1.0667999982833862
1641191881362649300,11.2756494140625,-1.524399995803833,-9.63759994506836,0.9812999963760376
1641191881372649500,11.2856494140625,-1.6018999814987183,-9.635600090026855,0.8703999519348145
1641191881382649300,11.2956494140625,-1.6653999090194702,-9.634499549865723,0.755899965763092
1641191881392655600,11.305655517578124,-1.7166999578475952,-9.633999824523926,0.638700008392334
1641191881402649300,11.3156494140625,-1.7577999830245972,-9.633699417114258,0.5203999876976013
1641191881412649500,11.3256494140625,-1.7942999601364136,-9.633699417114258,0.37709999084472656
1641191881422649300,11.3356494140625,-1.817099928855896,-9.633999824523926,0.22999998927116394
1641191881432649500,11.3456494140625,-1.8234999179840088,-9.634699821472168,0.1282999962568283
1641191881442660400,11.355660400390626,-1.8216999769210815,-9.635899543762207,-0.003999999724328518
1641191881452649500,11.3656494140625,-1.8127999305725098,-9.636899948120117,-0.11140000075101852
1641191881462649300,11.3756494140625,-1.7924000024795532,-9.638400077819824,-0.24139998853206635
1641191881472649500,11.3856494140625,-1.7597999572753906,-9.639699935913086,-0.3852999806404114
1641191881482649300,11.3956494140625,-1.7358999252319336,-9.640399932861328,-0.46779999136924744
1641191881492651000,11.405651123046875,-1.7170000076293945,-9.638599395751953,-0.5637999773025513
1641191881502649300,11.4156494140625,-1.760599970817566,-9.628600120544434,-0.5989999771118164
1641191881512649500,11.4256494140625,-1.895900011062622,-9.60260009765625,-0.6043999791145325
1641191881522649300,11.4356494140625,-2.0764000415802,-9.566999435424805,-0.5752999782562256
1641191881532649500,11.4456494140625,-2.303299903869629,-9.518899917602539,-0.505299985408783
1641191881542658800,11.455658935546875,-2.4756999015808105,-9.479499816894531,-0.423799991607666
1641191881552649500,11.4656494140625,-2.5887999534606934,-9.452300071716309,-0.3489999771118164
1641191881562649300,11.4756494140625,-2.693199872970581,-9.42609977722168,-0.25509998202323914
1641191881572649500,11.4856494140625,-2.7609000205993652,-9.40839958190918,-0.1704999953508377
1641191881582649300,11.4956494140625,-2.7983999252319336,-9.398300170898438,-0.10130000114440918
1641191881592655600,11.505655517578125,-2.8172998428344727,-9.393099784851074,-0.03830000013113022
1641191881602649300,11.5156494140625,-2.816699981689453,-9.393400192260742,-0.00559999980032444
1641191881612649500,11.5256494140625,-2.7962000370025635,-9.399399757385254,0.034199997782707214
1641191881622649300,11.5356494140625,-2.732499837875366,-9.417699813842773,0.09839999675750732
1641191881632649500,11.5456494140625,-2.688499927520752,-9.429900169372559,0.13529999554157257
1641191881642655700,11.55565576171875,-2.579399824142456,-9.458600044250488,0.22529999911785126
1641191881652649500,11.5656494140625,-2.4258999824523926,-9.495299339294434,0.35189998149871826
1641191881662647800,11.575647705078126,-2.33870005607605,-9.513699531555176,0.4341999888420105
1641191881672648000,11.58564794921875,-2.2718000411987305,-9.525799751281738,0.5166999697685242
1641191881682647800,11.595647705078125,-2.2483999729156494,-9.528399467468262,0.5690000057220459
1641191881692652500,11.605652587890624,-2.3120999336242676,-9.512100219726562,0.5862999558448792
1641191881702647800,11.615647705078125,-2.5109000205993652,-9.463299751281738,0.5573999881744385
1641191881712648000,11.62564794921875,-2.7747998237609863,-9.393499374389648,0.48169997334480286
1641191881722647800,11.635647705078124,-3.0685999393463135,-9.307299613952637,0.3561999797821045
1641191881732648000,11.64564794921875,-3.236299991607666,-9.253999710083008,0.2418999969959259
1641191881742657300,11.6556572265625,-3.307499885559082,-9.230799674987793,0.14999999105930328
1641191881752649500,11.6656494140625,-3.3250999450683594,-9.225500106811523,0.05089999735355377
1641191881762649300,11.6756494140625,-3.2528998851776123,-9.251399993896484,-0.00989999994635582
1641191881772649500,11.6856494140625,-3.087599992752075,-9.307799339294434,-0.0357000008225441
1641191881782649300,11.6956494140625,-2.8134000301361084,-9.39419937133789,-0.05810000002384186
1641191881792654000,11.705654052734374,-2.5592000484466553,-9.466300010681152,-0.09549999982118607
1641191881802649300,11.7156494140625,-2.3645999431610107,-9.51609992980957,-0.1460999995470047
1641191881812649500,11.7256494140625,-2.163100004196167,-9.562600135803223,-0.21570000052452087
1641191881822649300,11.7356494140625,-1.9889999628067017,-9.598999977111816,-0.2705000042915344
1641191881832649500,11.7456494140625,-1.9738999605178833,-9.602299690246582,-0.26319998502731323
1641191881842652400,11.75565234375,-2.0009000301361084,-9.597999572753906,-0.20909999310970306
1641191881852649500,11.7656494140625,-2.0321998596191406,-9.592999458312988,-0.11979999393224716
1641191881862649300,11.7756494140625,-2.046599864959717,-9.59060001373291,-0.032099999487400055
1641191881872649500,11.7856494140625,-2.0469000339508057,-9.590099334716797,0.09629999846220016
1641191881882649300,11.7956494140625,-2.027099847793579,-9.592000007629395,0.23249998688697815
1641191881892652500,11.805652587890625,-1.9892998933792114,-9.595799446105957,0.3643999993801117
1641191881902649300,11.8156494140625,-1.9368000030517578,-9.601399421691895,0.48079997301101685
1641191881912649500,11.8256494140625,-1.8637999296188354,-9.609299659729004,0.5979999899864197
1641191881922649300,11.8356494140625,-1.8131999969482422,-9.614799499511719,0.661300003528595
1641191881932649500,11.8456494140625,-1.7519999742507935,-9.621600151062012,0.723800003528595
1641191881942655700,11.85565576171875,-1.6941999197006226,-9.628399848937988,0.7694000005722046
1641191881952649500,11.8656494140625,-1.6388999223709106,-9.635499954223633,0.8004999756813049
1641191881962649300,11.8756494140625,-1.5860999822616577,-9.6427001953125,0.819599986076355
1641191881972649500,11.8856494140625,-1.5256999731063843,-9.651399612426758,0.8316999673843384
1641191881982649300,11.8956494140625,-1.4874999523162842,-9.656999588012695,0.8359000086784363
1641191881992657200,11.9056572265625,-1.4437999725341797,-9.663299560546875,0.8394999504089355
1641191882002649300,11.9156494140625,-1.4038000106811523,-9.668999671936035,0.8423999547958374
1641191882012649500,11.9256494140625,-1.3665999174118042,-9.674099922180176,0.8445000052452087
1641191882022649300,11.9356494140625,-1.3209999799728394,-9.680399894714355,0.8452999591827393
1641191882032649500,11.9456494140625,-1.2896000146865845,-9.684700012207031,0.8440999984741211
1641191882042658800,11.955658935546875,-1.2519999742507935,-9.6899995803833,0.8402000069618225
1641191882052649500,11.9656494140625,-1.2175999879837036,-9.694799423217773,0.8356999754905701
1641191882062649300,11.9756494140625,-1.1668999195098877,-9.701600074768066,0.8287000060081482
1641191882072649500,11.9856494140625,-1.105199933052063,-9.709699630737305,0.8180999755859375
1641191882082647800,11.995647705078126,-1.0264999866485596,-9.719799995422363,0.8007999658584595
1641191882092658700,12.00565869140625,-0.8985999822616577,-9.734899520874023,0.7701999545097351
1641191882102647800,12.015647705078125,-0.7813000082969666,-9.74679946899414,0.7475999593734741
1641191882112648000,12.02564794921875,-0.5895000100135803,-9.762100219726562,0.7231999635696411
1641191882122647800,12.035647705078125,-0.3604999780654907,-9.774299621582031,0.708899974822998
1641191882132648000,12.04564794921875,-0.11669999361038208,-9.78030014038086,0.7077999711036682
1641191882142657300,12.0556572265625,0.1160999983549118,-9.779500007629395,0.7196999788284302
1641191882152648000,12.06564794921875,0.3560999929904938,-9.771699905395508,0.746399998664856
1641191882162663400,12.075663330078125,0.5097000002861023,-9.76259994506836,0.774899959564209
1641191882172649500,12.0856494140625,0.5941999554634094,-9.75570011138916,0.8015999794006348
1641191882182649300,12.0956494140625,0.6599000096321106,-9.747900009155273,0.843999981880188
1641191882192652500,12.105652587890624,0.6954999566078186,-9.740499496459961,0.8988999724388123
1641191882202649300,12.1156494140625,0.710599958896637,-9.73289966583252,0.9669999480247498
1641191882212649500,12.1256494140625,0.7084000110626221,-9.723299980163574,1.0608999729156494
1641191882222649300,12.1356494140625,0.6825999617576599,-9.713699340820312,1.1608999967575073
1641191882232649500,12.1456494140625,0.6549999713897705,-9.709699630737305,1.209299921989441
1641191882242658800,12.155658935546874,0.5794999599456787,-9.705299377441406,1.281000018119812
1641191882252649500,12.1656494140625,0.47110000252723694,-9.70359992980957,1.336899995803833
1641191882262649300,12.1756494140625,0.32429999113082886,-9.705699920654297,1.365299940109253
1641191882272649500,12.1856494140625,0.08779999613761902,-9.711699485778809,1.3583999872207642
1641191882282649300,12.1956494140625,-0.05739999935030937,-9.714799880981445,1.3370999097824097
1641191882292652500,12.205652587890626,-0.2724999785423279,-9.715499877929688,1.3055999279022217
1641191882302649300,12.2156494140625,-0.486299991607666,-9.71049976348877,1.2798999547958374
1641191882312649500,12.2256494140625,-0.6947999596595764,-9.700799942016602,1.257599949836731
1641191882322649300,12.2356494140625,-0.8942999839782715,-9.687899589538574,1.230299949645996
1641191882332649500,12.2456494140625,-1.1180999279022217,-9.670700073242188,1.1815999746322632
1641191882342658800,12.255658935546874,-1.250599980354309,-9.660099983215332,1.1345000267028809
1641191882352649500,12.2656494140625,-1.417199969291687,-9.647699356079102,1.0401999950408936
1641191882362649300,12.2756494140625,-1.5073000192642212,-9.642000198364258,0.9637999534606934
1641191882372649500,12.2856494140625,-1.594499945640564,-9.638299942016602,0.8542999625205994
1641191882382649300,12.2956494140625,-1.6582999229431152,-9.637399673461914,0.7347999811172485
1641191882392652500,12.305652587890625,-1.7095999717712402,-9.638699531555176,0.5846999883651733
1641191882402649300,12.3156494140625,-1.730299949645996,-9.64069938659668,0.4812999963760376
1641191882412649500,12.3256494140625,-1.7421998977661133,-9.644299507141113,0.3473999798297882
1641191882422649300,12.3356494140625,-1.7407000064849854,-9.649700164794922,0.15060000121593475
1641191882432649500,12.3456494140625,-1.733199954032898,-9.651999473571777,0.06239999830722809
1641191882442657300,12.3556572265625,-1.7127000093460083,-9.655499458312988,-0.08879999816417694
1641191882452649500,12.3656494140625,-1.68149995803833,-9.657599449157715,-0.2709999978542328
1641191882462649300,12.3756494140625,-1.6531999111175537,-9.657299995422363,-0.4156999886035919
1641191882472649500,12.3856494140625,-1.6368999481201172,-9.655200004577637,-0.5163999795913696
1641191882482649300,12.3956494140625,-1.6900999546051025,-9.642000198364258,-0.5870999693870544
1641191882492658700,12.40565869140625,-1.8490999937057495,-9.611800193786621,-0.6032999753952026
1641191882502647800,12.415647705078126,-2.0703999996185303,-9.567500114440918,-0.5873000025749207
1641191882512648000,12.42564794921875,-2.3536999225616455,-9.504599571228027,-0.5394999980926514
1641191882522647800,12.435647705078125,-2.5279998779296875,-9.462499618530273,-0.4901999831199646
1641191882532648000,12.44564794921875,-2.706699848175049,-9.416500091552734,-0.41579997539520264
1641191882542652400,12.45565234375,-2.836099863052368,-9.381499290466309,-0.3360999822616577
1641191882552648000,12.46564794921875,-2.9184999465942383,-9.358699798583984,-0.257099986076355
1641191882562647800,12.475647705078124,-2.9637999534606934,-9.346199989318848,-0.18519999086856842
1641191882572648000,12.48564794921875,-2.989300012588501,-9.339200019836426,-0.11639999598264694
1641191882582649300,12.4956494140625,-2.994999885559082,-9.337699890136719,-0.08339999616146088
1641191882592657200,12.5056572265625,-2.9907000064849854,-9.339300155639648,-0.05289999768137932
1641191882602649300,12.5156494140625,-2.9731998443603516,-9.344999313354492,-0.029199998825788498
1641191882612649500,12.5256494140625,-2.936800003051758,-9.356499671936035,-0.006799999624490738
1641191882622649300,12.5356494140625,-2.8522000312805176,-9.382599830627441,0.03189999982714653
1641191882632651000,12.545651123046875,-2.7825000286102295,-9.403299331665039,0.06319999694824219
1641191882642658800,12.555658935546875,-2.6664998531341553,-9.436200141906738,0.13439999520778656
1641191882652649500,12.5656494140625,-2.542099952697754,-9.468400001525879,0.23799999058246613
1641191882662649300,12.5756494140625,-2.4649999141693115,-9.486100196838379,0.3276999890804291
1641191882672649500,12.5856494140625,-2.408399820327759,-9.496600151062012,0.42819997668266296
1641191882682649300,12.5956494140625,-2.403899908065796,-9.494400024414062,0.4974999725818634
1641191882692655600,12.605655517578125,-2.5190999507904053,-9.463399887084961,0.5162000060081482
1641191882702649300,12.6156494140625,-2.75,-9.401100158691406,0.4763999879360199
1641191882712649500,12.6256494140625,-3.0493998527526855,-9.312699317932129,0.3789999783039093
1641191882722649300,12.6356494140625,-3.2047998905181885,-9.263199806213379,0.3009999990463257
1641191882732649500,12.6456494140625,-3.3104000091552734,-9.228699684143066,0.20419999957084656
1641191882742658800,12.655658935546874,-3.341899871826172,-9.218899726867676,0.10769999772310257
1641191882752649500,12.6656494140625,-3.304499864578247,-9.232999801635742,0.020600000396370888
1641191882762649300,12.6756494140625,-3.188699960708618,-9.273599624633789,-0.042799998074769974
1641191882772649500,12.6856494140625,-2.9644999504089355,-9.347299575805664,-0.09969999641180038
1641191882782649300,12.6956494140625,-2.787299871444702,-9.401000022888184,-0.14419999718666077
1641191882792651000,12.705651123046875,-2.5683000087738037,-9.461599349975586,-0.22450000047683716
1641191882802649300,12.7156494140625,-2.3777999877929688,-9.508500099182129,-0.3215000033378601
1641191882812649500,12.7256494140625,-2.2058000564575195,-9.545899391174316,-0.424699991941452
1641191882822649300,12.7356494140625,-2.1317999362945557,-9.560599327087402,-0.46869999170303345
1641191882832651000,12.745651123046875,-2.1641998291015625,-9.554499626159668,-0.44419997930526733
